timestamp,baro_pressure,baro_temperature,baro_altitude,accel_x,accel_y,accel_z,gyro_x,gyro_y,gyro_z,mag_x,mag_y,mag_z,quat_w,quat_x,quat_y,quat_z,fusion_altitude,fusion_velocity
4423617,101282.359375,21.299999,3.550606,0.2400,0.2000,9.5700,-0.0625,0.0000,0.1250,0.0000,0.0000,0.0000,16382.0000,183.0000,-194.0000,0.0000,0.2840
4454243,101286.281250,21.299999,3.224262,0.2200,0.1900,9.5900,0.0000,0.0000,0.0000,0.0000,0.0000,0.0000,16382.0000,183.0000,-194.0000,0.0000,0.5420
4484295,101279.507812,21.299999,3.788001,0.2100,0.2000,9.5800,0.0625,0.0000,0.0000,0.0000,0.0000,0.0000,16382.0000,183.0000,-194.0000,0.0000,0.8450
4514698,101290.203125,21.299999,2.897420,0.2200,0.2000,9.5700,0.0625,0.0625,0.0000,0.0000,0.0000,0.0000,16382.0000,183.0000,-194.0000,0.0000,1.0768
4544539,101278.437500,21.299999,3.877470,0.2400,0.2200,9.5800,0.0000,0.0625,-0.0625,0.0000,0.0000,0.0000,16382.0000,183.0000,-194.0000,0.0000,1.3870
4574521,101276.671875,21.309999,4.024384,0.2200,0.2200,9.5800,0.0625,-0.0625,0.0625,0.0000,0.0000,0.0000,16382.0000,183.0000,-194.0000,0.0000,1.7090
4604913,101282.359375,21.299999,3.550606,0.2200,0.1900,9.5900,0.0625,0.0625,0.0625,0.0000,0.0000,0.0000,16382.0000,183.0000,-194.0000,0.0000,1.9930
4634698,101292.351562,21.309999,2.718499,0.2500,0.2100,9.5700,-0.0625,0.1875,0.0000,0.0000,0.0000,0.0000,16382.0000,183.0000,-194.0000,0.0000,2.2105
4664708,101283.429688,21.299999,3.461649,0.2300,0.2100,9.5900,-0.0625,0.1250,0.0625,0.0000,0.0000,0.0000,16382.0000,183.0000,-194.0000,0.0000,2.4874
4694950,101279.507812,21.299999,3.788001,0.2000,0.2100,9.5900,0.0000,0.0625,-0.1250,0.0000,0.0000,0.0000,16382.0000,183.0000,-194.0000,0.0000,2.7905
4735084,101284.507812,21.309999,3.371675,0.2200,0.1900,9.5800,0.2500,0.1875,0.0625,0.0000,0.0000,0.0000,16382.0000,183.0000,-194.0000,0.0000,2.7051
4765173,101278.437500,21.299999,3.877470,0.2400,0.2100,9.5800,-0.1250,0.0000,-0.0625,0.0000,0.0000,0.0000,16382.0000,183.0000,-194.0000,0.0000,2.6929
4795194,101280.593750,21.309999,3.698024,0.2200,0.2200,9.6000,0.0000,0.1875,0.0000,0.0000,0.0000,0.0000,16382.0000,183.0000,-194.0000,0.0000,2.6100
4834947,101276.671875,21.309999,4.024384,0.2000,0.1900,9.5700,0.0625,-0.1250,-0.0625,0.0000,0.0000,0.0000,16382.0000,183.0000,-194.0000,0.0000,2.6422
4865539,101284.507812,21.309999,3.371675,0.2300,0.2000,9.5800,0.0000,-0.1250,-0.0625,0.0000,0.0000,0.0000,16382.0000,183.0000,-194.0000,0.0000,2.5242
4895675,101276.671875,21.309999,4.024384,0.2400,0.2000,9.6100,0.1875,0.0000,0.0000,0.0000,0.0000,0.0000,16382.0000,183.0000,-194.0000,0.0000,2.4437
4925778,101287.359375,21.299999,3.134290,0.2200,0.2000,9.5600,-0.0625,0.0000,0.0000,0.0000,0.0000,0.0000,16382.0000,183.0000,-194.0000,0.0000,2.3393
4957125,101280.593750,21.309999,3.698024,0.2200,0.2100,9.5800,-0.0625,0.0625,-0.1250,0.0000,0.0000,0.0000,16382.0000,183.0000,-194.0000,0.0000,2.3633
4986697,101280.593750,21.309999,3.698024,0.1900,0.2000,9.5800,0.0625,0.0000,-0.1250,0.0000,0.0000,0.0000,16382.0000,183.0000,-194.0000,0.0000,2.3130
5016328,101276.671875,21.309999,4.024384,0.2200,0.2100,9.5600,0.0625,-0.0625,-0.0625,0.0000,0.0000,0.0000,16382.0000,183.0000,-194.0000,0.0000,2.2562
5047632,101278.437500,21.299999,3.877470,0.2300,0.2100,9.6100,-0.0625,0.0625,0.0625,0.0000,0.0000,0.0000,16382.0000,183.0000,-194.0000,0.0000,2.2292
5077223,101280.593750,21.309999,3.698024,0.2100,0.2000,9.5800,0.0000,-0.0625,0.0000,0.0000,0.0000,0.0000,16382.0000,183.0000,-194.0000,0.0000,2.1373
5106751,101284.507812,21.309999,3.371675,0.2200,0.2100,9.6000,0.0000,-0.1875,0.0000,0.0000,0.0000,0.0000,16382.0000,183.0000,-194.0000,0.0000,2.0372
5138153,101284.507812,21.309999,3.371675,0.2200,0.2000,9.5600,-0.0625,0.0625,0.0000,0.0000,0.0000,0.0000,16382.0000,183.0000,-194.0000,0.0000,1.9045
5167679,101288.429688,21.309999,3.045336,0.2100,0.2000,9.5800,0.0000,-0.0625,0.0625,0.0000,0.0000,0.0000,16382.0000,183.0000,-194.0000,0.0000,1.8110
5197301,101282.742188,21.309999,3.519090,0.2100,0.2000,9.5600,0.0000,-0.1250,0.0625,0.0000,0.0000,0.0000,16382.0000,183.0000,-194.0000,0.0000,1.6901
5226825,101280.593750,21.309999,3.698024,0.2000,0.1900,9.5600,0.0000,-0.0625,0.0625,0.0000,0.0000,0.0000,16382.0000,183.0000,-194.0000,0.0000,1.6725
5266326,101279.890625,21.320000,3.756483,0.2500,0.2000,9.5600,-0.1250,0.2500,-0.0625,0.0000,0.0000,0.0000,16382.0000,183.0000,-194.0000,0.0000,1.6032
5296797,101276.671875,21.309999,4.024384,0.2400,0.2000,9.5700,-0.0625,0.1875,0.0000,0.0000,0.0000,0.0000,16382.0000,183.0000,-194.0000,0.0000,1.5553
5326996,101280.593750,21.309999,3.698024,0.2300,0.2000,9.5800,0.0000,0.0625,0.0000,0.0000,0.0000,0.0000,16382.0000,183.0000,-194.0000,0.0000,1.4488
5358331,101292.351562,21.309999,2.718499,0.2200,0.2000,9.5800,0.0000,0.1875,0.0000,0.0000,0.0000,0.0000,16382.0000,183.0000,-194.0000,0.0000,1.2785
5387895,101280.593750,21.309999,3.698024,0.2300,0.2000,9.5700,-0.0625,0.0625,-0.0625,0.0000,0.0000,0.0000,16382.0000,183.0000,-194.0000,0.0000,1.2045
5417475,101278.820312,21.309999,3.845444,0.2200,0.2000,9.5600,0.0000,0.3125,-0.1250,0.0000,0.0000,0.0000,16382.0000,183.0000,-194.0000,0.0000,1.1750
5447370,101272.750000,21.309999,4.351261,0.1900,0.2000,9.5600,-0.0625,0.1875,-0.0625,0.0000,0.0000,0.0000,16382.0000,183.0000,-194.0000,0.0000,1.1859
5478732,101288.429688,21.309999,3.045336,0.2200,0.1800,9.5700,-0.1875,0.1875,-0.0625,0.0000,0.0000,0.0000,16382.0000,183.0000,-194.0000,0.0000,1.1250
5508361,101278.820312,21.309999,3.845444,0.2200,0.2000,9.5900,0.0000,0.1250,0.0000,0.0000,0.0000,0.0000,16382.0000,183.0000,-194.0000,0.0000,1.0807
5537887,101284.507812,21.309999,3.371675,0.2100,0.2100,9.6000,-0.0625,0.1250,-0.0625,0.0000,0.0000,0.0000,16382.0000,183.0000,-194.0000,0.0000,0.9807
5569234,101285.593750,21.309999,3.281194,0.2200,0.2200,9.5800,-0.0625,-0.0625,0.0625,0.0000,0.0000,0.0000,16382.0000,183.0000,-194.0000,0.0000,0.8675
5598780,101286.656250,21.309999,3.192747,0.2500,0.1900,9.5700,0.0000,0.2500,-0.1250,0.0000,0.0000,0.0000,16382.0000,183.0000,-194.0000,0.0000,0.7205
5628386,101280.593750,21.309999,3.698024,0.2100,0.2100,9.5700,-0.1250,-0.0625,0.0625,0.0000,0.0000,0.0000,16382.0000,183.0000,-194.0000,0.0000,0.6465
5658064,101284.507812,21.309999,3.371675,0.2100,0.2100,9.5900,0.0000,0.0625,-0.1250,0.0000,0.0000,0.0000,16382.0000,183.0000,-194.0000,0.0000,0.6444
5697558,101284.507812,21.309999,3.371675,0.2300,0.2000,9.5900,-0.0625,0.0000,-0.0625,0.0000,0.0000,0.0000,16382.0000,183.0000,-194.0000,0.0000,0.5444
5728015,101276.671875,21.309999,4.024384,0.2300,0.1800,9.5700,-0.0625,0.0000,0.0625,0.0000,0.0000,0.0000,16382.0000,183.0000,-194.0000,0.0000,0.4818
5758339,101277.742188,21.309999,3.935421,0.2300,0.1900,9.5500,0.0000,-0.0625,0.1250,0.0000,0.0000,0.0000,16382.0000,183.0000,-194.0000,0.0000,0.3615
5789655,101278.820312,21.309999,3.845444,0.2200,0.2000,9.5800,0.1250,0.0625,0.0625,0.0000,0.0000,0.0000,16382.0000,183.0000,-194.0000,0.0000,0.3646
5819288,101293.429688,21.309999,2.628532,0.2200,0.2000,9.5600,0.0000,0.0000,0.0625,0.0000,0.0000,0.0000,16382.0000,183.0000,-194.0000,0.0000,0.1903
5848828,101269.898438,21.309999,4.588674,0.2200,0.2000,9.5600,0.0000,0.1250,0.0625,0.0000,0.0000,0.0000,16382.0000,183.0000,-194.0000,0.0000,0.2202
5880206,101286.656250,21.309999,3.192747,0.2200,0.2100,9.5800,-0.0625,-0.1250,0.0000,0.0000,0.0000,0.0000,16382.0000,183.0000,-194.0000,0.0000,0.1475
5909774,101286.656250,21.309999,3.192747,0.2200,0.2000,9.5700,0.0000,0.0625,0.0625,0.0000,0.0000,0.0000,16382.0000,183.0000,-194.0000,0.0000,0.0837
5939353,101286.656250,21.309999,3.192747,0.2300,0.2000,9.5800,-0.0625,-0.0625,0.0000,0.0000,0.0000,0.0000,16382.0000,183.0000,-194.0000,0.0000,-0.0307
5969001,101278.820312,21.309999,3.845444,0.2000,0.2000,9.5500,0.0625,0.0000,0.0000,0.0000,0.0000,0.0000,16382.0000,183.0000,-194.0000,0.0000,0.0108
6000359,101284.507812,21.309999,3.371675,0.2200,0.1900,9.5800,0.0625,-0.0625,-0.0625,0.0000,0.0000,0.0000,16382.0000,183.0000,-194.0000,0.0000,0.0078
6029919,101286.656250,21.309999,3.192747,0.2300,0.2000,9.5700,-0.1250,0.0000,0.1250,0.0000,0.0000,0.0000,16382.0000,183.0000,-194.0000,0.0000,-0.0634
6059488,101281.656250,21.309999,3.609065,0.2300,0.2000,9.6000,-0.1250,-0.1875,0.1250,0.0000,0.0000,0.0000,16382.0000,183.0000,-194.0000,0.0000,-0.1103
6098815,101283.812500,21.320000,3.429624,0.2100,0.2000,9.6000,0.0000,-0.1250,0.2500,0.0000,0.0000,0.0000,16382.0000,183.0000,-194.0000,0.0000,-0.1429
6129305,101294.500000,21.309999,2.539582,0.2200,0.2000,9.5800,-0.0625,0.1250,-0.0625,0.0000,0.0000,0.0000,16382.0000,183.0000,-194.0000,0.0000,-0.1221
6170394,101277.742188,21.309999,3.935421,0.2100,0.2000,9.5600,-0.0625,-0.1250,0.0625,0.0000,0.0000,0.0000,16382.0000,183.0000,-194.0000,0.0000,-0.1951
6221259,101286.656250,21.309999,3.192747,0.2300,0.1900,9.6000,0.0000,0.1250,0.1250,0.0000,0.0000,0.0000,16382.0000,183.0000,-194.0000,0.0000,-0.2046
6252549,101282.742188,21.309999,3.519090,0.2400,0.2100,9.6000,0.0000,0.0000,0.0000,0.0000,0.0000,0.0000,16382.0000,183.0000,-194.0000,0.0000,-0.1731
6282136,101274.898438,21.309999,4.172316,0.2200,0.2000,9.5700,0.0000,0.0000,-0.0625,0.0000,0.0000,0.0000,16382.0000,183.0000,-194.0000,0.0000,-0.0829
6311722,101279.890625,21.320000,3.756483,0.2100,0.2100,9.5800,0.0000,0.1250,0.0000,0.0000,0.0000,0.0000,16382.0000,183.0000,-194.0000,0.0000,-0.0995
6343040,101281.656250,21.309999,3.609065,0.2300,0.2000,9.5700,0.0000,0.0625,-0.0625,0.0000,0.0000,0.0000,16382.0000,183.0000,-194.0000,0.0000,-0.0704
6372591,101280.593750,21.309999,3.698024,0.2200,0.2000,9.5900,-0.0625,0.2500,0.0000,0.0000,0.0000,0.0000,16382.0000,183.0000,-194.0000,0.0000,-0.0198
6402173,101286.656250,21.309999,3.192747,0.2100,0.2000,9.5800,0.0000,0.0000,-0.0625,0.0000,0.0000,0.0000,16382.0000,183.0000,-194.0000,0.0000,-0.0448
6431708,101282.742188,21.309999,3.519090,0.2200,0.2000,9.5600,0.0000,0.0000,0.0625,0.0000,0.0000,0.0000,16382.0000,183.0000,-194.0000,0.0000,-0.0388
6460896,101273.820312,21.309999,4.261788,0.2300,0.2100,9.6000,0.0000,-0.0625,0.0000,0.0000,0.0000,0.0000,16382.0000,183.0000,-194.0000,0.0000,0.1286
6490574,101283.812500,21.320000,3.429624,0.2200,0.2000,9.5700,0.0000,0.1875,0.0625,0.0000,0.0000,0.0000,16382.0000,183.0000,-194.0000,0.0000,0.0722
6520647,101274.898438,21.309999,4.172316,0.2200,0.2000,9.6000,0.0000,0.0625,0.0000,0.0000,0.0000,0.0000,16382.0000,183.0000,-194.0000,0.0000,0.1606
6560125,101286.656250,21.309999,3.192747,0.2200,0.2100,9.5900,0.0000,0.0625,0.0000,0.0000,0.0000,0.0000,16382.0000,183.0000,-194.0000,0.0000,0.1381
6590753,101282.742188,21.309999,3.519090,0.2200,0.2200,9.5900,-0.0625,0.0000,0.0625,0.0000,0.0000,0.0000,16382.0000,183.0000,-194.0000,0.0000,0.0829
6620801,101282.742188,21.309999,3.519090,0.2200,0.2100,9.5800,-0.0625,-0.0625,-0.0625,0.0000,0.0000,0.0000,16382.0000,183.0000,-194.0000,0.0000,0.0663
6652165,101278.820312,21.309999,3.845444,0.2200,0.2100,9.5700,0.1250,0.0000,0.0000,0.0000,0.0000,0.0000,16382.0000,183.0000,-194.0000,0.0000,0.0870
6681775,101286.656250,21.309999,3.192747,0.2200,0.2000,9.5900,0.0625,0.0000,-0.0625,0.0000,0.0000,0.0000,16382.0000,183.0000,-194.0000,0.0000,0.0401
6711314,101278.820312,21.309999,3.845444,0.2100,0.2100,9.5900,0.0000,-0.1250,-0.0625,0.0000,0.0000,0.0000,16382.0000,183.0000,-194.0000,0.0000,0.0958
6741226,101280.968750,21.320000,3.666507,0.2100,0.2000,9.5700,0.0000,0.0000,-0.1250,0.0000,0.0000,0.0000,16382.0000,183.0000,-194.0000,0.0000,0.0982
6772650,101282.742188,21.309999,3.519090,0.2400,0.2100,9.6000,0.0000,0.0000,0.0000,0.0000,0.0000,0.0000,16382.0000,183.0000,-194.0000,0.0000,0.0239
6802184,101282.742188,21.309999,3.519090,0.2200,0.2000,9.5800,0.0625,0.0000,-0.1875,0.0000,0.0000,0.0000,16382.0000,183.0000,-194.0000,0.0000,0.0364
6831802,101283.812500,21.320000,3.429624,0.2200,0.2100,9.6000,-0.1250,-0.1250,-0.0625,0.0000,0.0000,0.0000,16382.0000,183.0000,-194.0000,0.0000,-0.0313
6863144,101287.742188,21.320000,3.102267,0.2200,0.2000,9.5900,0.0000,0.0625,-0.0625,0.0000,0.0000,0.0000,16382.0000,183.0000,-194.0000,0.0000,-0.0219
6892723,101279.890625,21.320000,3.756483,0.2200,0.2000,9.5600,0.0000,-0.1250,0.0625,0.0000,0.0000,0.0000,16382.0000,183.0000,-194.0000,0.0000,0.0007
6922328,101279.890625,21.320000,3.756483,0.2000,0.2100,9.5800,0.0000,0.0000,0.0625,0.0000,0.0000,0.0000,16382.0000,183.0000,-194.0000,0.0000,0.0036
6951946,101286.656250,21.309999,3.192747,0.2100,0.2000,9.5800,-0.0625,0.0000,0.0625,0.0000,0.0000,0.0000,16382.0000,183.0000,-194.0000,0.0000,-0.0515
6991431,101293.812500,21.330000,2.597018,0.2100,0.2000,9.5700,0.0625,-0.1250,-0.0625,0.0000,0.0000,0.0000,16382.0000,183.0000,-194.0000,0.0000,-0.0861
7021926,101280.968750,21.320000,3.666507,0.2200,0.2100,9.5900,0.0000,0.1250,-0.0625,0.0000,0.0000,0.0000,16382.0000,183.0000,-194.0000,0.0000,-0.0903
7052281,101279.890625,21.320000,3.756483,0.2200,0.1900,9.5700,0.0625,0.0625,-0.0625,0.0000,0.0000,0.0000,16382.0000,183.0000,-194.0000,0.0000,-0.0956
7083597,101284.890625,21.320000,3.340159,0.2300,0.2000,9.5800,0.0000,0.0000,0.0000,0.0000,0.0000,0.0000,16382.0000,183.0000,-194.0000,0.0000,-0.1033
7113178,101278.820312,21.309999,3.845444,0.2300,0.2000,9.5800,0.0000,-0.1250,-0.1250,0.0000,0.0000,0.0000,16382.0000,183.0000,-194.0000,0.0000,-0.0802
7142750,101285.968750,21.330000,3.250186,0.2100,0.2200,9.5900,0.0625,0.0625,-0.1875,0.0000,0.0000,0.0000,16382.0000,183.0000,-194.0000,0.0000,-0.0975
7174107,101282.742188,21.309999,3.519090,0.2200,0.2000,9.5600,-0.1250,0.0000,-0.1250,0.0000,0.0000,0.0000,16382.0000,183.0000,-194.0000,0.0000,-0.0624
7203677,101288.812500,21.320000,3.013313,0.2300,0.2000,9.5600,-0.1250,0.0625,0.0625,0.0000,0.0000,0.0000,16382.0000,183.0000,-194.0000,0.0000,-0.1230
7233263,101278.820312,21.309999,3.845444,0.2200,0.2000,9.5900,-0.0625,-0.0625,-0.1875,0.0000,0.0000,0.0000,16382.0000,183.0000,-194.0000,0.0000,-0.1236
7262872,101284.890625,21.320000,3.340159,0.2200,0.1900,9.6000,0.1250,-0.1250,0.1250,0.0000,0.0000,0.0000,16382.0000,183.0000,-194.0000,0.0000,-0.1082
7294281,101283.812500,21.320000,3.429624,0.2200,0.2100,9.5800,0.0625,0.0000,0.0000,0.0000,0.0000,0.0000,16382.0000,183.0000,-194.0000,0.0000,-0.0130
7323838,101280.968750,21.320000,3.666507,0.2200,0.2100,9.5800,-0.0625,-0.0625,-0.0625,0.0000,0.0000,0.0000,16382.0000,183.0000,-194.0000,0.0000,-0.0076
7353414,101286.656250,21.309999,3.192747,0.2300,0.1900,9.5900,-0.0625,-0.0625,0.0625,0.0000,0.0000,0.0000,16382.0000,183.0000,-194.0000,0.0000,-0.0510
7392786,101287.742188,21.320000,3.102267,0.2200,0.2100,9.5700,0.1250,0.0000,0.0000,0.0000,0.0000,0.0000,16382.0000,183.0000,-194.0000,0.0000,-0.0842
7423258,101278.820312,21.309999,3.845444,0.2200,0.1900,9.5700,0.1250,0.0000,0.0000,0.0000,0.0000,0.0000,16382.0000,183.0000,-194.0000,0.0000,-0.0694
7453364,101270.976562,21.309999,4.498690,0.2100,0.2000,9.6000,-0.0625,0.0625,0.0625,0.0000,0.0000,0.0000,16382.0000,183.0000,-194.0000,0.0000,0.0294
7483427,101279.890625,21.320000,3.756483,0.2200,0.2000,9.5800,0.0000,-0.0625,0.0000,0.0000,0.0000,0.0000,16382.0000,183.0000,-194.0000,0.0000,0.0418
7514786,101280.968750,21.320000,3.666507,0.2200,0.2200,9.5700,0.0625,-0.0625,-0.1250,0.0000,0.0000,0.0000,16382.0000,183.0000,-194.0000,0.0000,0.0977
7544374,101280.968750,21.320000,3.666507,0.2100,0.2100,9.5900,0.1875,0.0000,0.0000,0.0000,0.0000,0.0000,16382.0000,183.0000,-194.0000,0.0000,0.0834
7573941,101280.968750,21.320000,3.666507,0.2200,0.1900,9.5800,0.0625,-0.1250,0.0625,0.0000,0.0000,0.0000,16382.0000,183.0000,-194.0000,0.0000,0.1101
7605286,101282.742188,21.309999,3.519090,0.2100,0.2000,9.5900,0.1250,-0.1875,0.1250,0.0000,0.0000,0.0000,16382.0000,183.0000,-194.0000,0.0000,0.1125
7634865,101282.742188,21.309999,3.519090,0.2300,0.2100,9.5700,0.0000,-0.1250,0.0000,0.0000,0.0000,0.0000,16382.0000,183.0000,-194.0000,0.0000,0.0996
7673841,101278.820312,21.309999,3.845444,0.2300,0.2000,9.5500,0.1250,-0.0625,0.0000,0.0000,0.0000,0.0000,16382.0000,183.0000,-194.0000,0.0000,0.1565
7723643,101280.968750,21.320000,3.666507,0.1600,0.2200,9.5300,0.0625,-0.0625,-0.0625,0.0000,0.0000,0.0000,16382.0000,183.0000,-194.0000,0.0000,0.1904
7755539,101284.890625,21.320000,3.340159,0.1400,0.2200,9.5400,-0.0625,0.0625,-0.0625,0.0000,0.0000,0.0000,16382.0000,183.0000,-194.0000,0.0000,0.1518
7785141,101279.890625,21.320000,3.756483,0.2500,0.2000,9.5900,0.0000,0.0625,-0.1875,0.0000,0.0000,0.0000,16382.0000,183.0000,-194.0000,0.0000,0.0663
7814693,101277.046875,21.320000,3.993374,0.1400,0.2000,9.5900,0.0000,0.1875,-0.0625,0.0000,0.0000,0.0000,16382.0000,183.0000,-194.0000,0.0000,0.0805
7854173,101290.578125,21.309999,2.866413,0.2000,0.2200,9.5900,0.0625,0.0000,0.0000,0.0000,0.0000,0.0000,16382.0000,183.0000,-194.0000,0.0000,0.0266
7884690,101277.046875,21.320000,3.993374,0.1800,0.2200,9.5900,-0.1250,0.0625,0.0625,0.0000,0.0000,0.0000,16382.0000,183.0000,-194.0000,0.0000,0.0546
7914815,101280.968750,21.320000,3.666507,0.2300,0.2000,9.5800,0.0000,0.0000,0.0000,0.0000,0.0000,0.0000,16382.0000,183.0000,-194.0000,0.0000,0.0534
7946169,101279.890625,21.320000,3.756483,0.2200,0.2000,9.5600,-0.1250,-0.2500,0.1250,0.0000,0.0000,0.0000,16382.0000,183.0000,-194.0000,0.0000,0.0760
7975710,101277.742188,21.309999,3.935421,0.2000,0.2100,9.5700,-0.1250,0.1875,0.0000,0.0000,0.0000,0.0000,16382.0000,183.0000,-194.0000,0.0000,0.1028
8005323,101286.656250,21.309999,3.192747,0.2200,0.2100,9.6100,-0.1250,0.0000,0.1250,0.0000,0.0000,0.0000,16382.0000,183.0000,-194.0000,0.0000,0.0440
8035149,101291.656250,21.320000,2.776445,0.1900,0.2100,9.5800,-0.1875,-0.1250,0.0000,0.0000,0.0000,0.0000,16382.0000,183.0000,-194.0000,0.0000,-0.0153
8066513,101292.726562,21.320000,2.687494,0.2400,0.1900,9.5800,0.0625,-0.1250,0.0000,0.0000,0.0000,0.0000,16382.0000,183.0000,-194.0000,0.0000,-0.0657
8096100,101280.968750,21.320000,3.666507,0.2100,0.2200,9.5700,0.0625,0.0000,0.0625,0.0000,0.0000,0.0000,16382.0000,183.0000,-194.0000,0.0000,-0.0646
8125678,101282.742188,21.309999,3.519090,0.1900,0.2100,9.5700,0.0000,0.0625,-0.0625,0.0000,0.0000,0.0000,16382.0000,183.0000,-194.0000,0.0000,-0.1185
8165218,101280.968750,21.320000,3.666507,0.2600,0.2100,9.6000,0.0000,0.0000,0.0000,0.0000,0.0000,0.0000,16382.0000,183.0000,-194.0000,0.0000,-0.0415
8195629,101288.812500,21.320000,3.013313,0.2100,0.2000,9.5800,-0.0625,0.1250,0.0000,0.0000,0.0000,0.0000,16382.0000,183.0000,-194.0000,0.0000,-0.1294
8225795,101296.648438,21.320000,2.360668,0.2000,0.2000,9.5900,0.0000,0.0625,0.0625,0.0000,0.0000,0.0000,16382.0000,183.0000,-194.0000,0.0000,-0.2303
8255679,101280.968750,21.320000,3.666507,0.2100,0.2000,9.6000,0.0000,0.0000,0.0000,0.0000,0.0000,0.0000,16382.0000,183.0000,-194.0000,0.0000,-0.2487
8295398,101282.742188,21.309999,3.519090,0.2300,0.1900,9.5800,0.1250,-0.0625,0.0000,0.0000,0.0000,0.0000,16382.0000,183.0000,-194.0000,0.0000,-0.2838
8325903,101278.820312,21.309999,3.845444,0.2300,0.2000,9.5700,0.0625,0.0625,0.1250,0.0000,0.0000,0.0000,16382.0000,183.0000,-194.0000,0.0000,-0.2222
8355964,101282.742188,21.309999,3.519090,0.2100,0.2100,9.5700,0.0000,-0.0625,0.0000,0.0000,0.0000,0.0000,16382.0000,183.0000,-194.0000,0.0000,-0.1479
8387328,101279.890625,21.320000,3.756483,0.2200,0.2100,9.5900,0.1250,-0.0625,0.0000,0.0000,0.0000,0.0000,16382.0000,183.0000,-194.0000,0.0000,-0.0457
8416916,101284.890625,21.320000,3.340159,0.2200,0.1900,9.5900,-0.1250,0.1250,-0.1250,0.0000,0.0000,0.0000,16382.0000,183.0000,-194.0000,0.0000,-0.0766
8446482,101280.968750,21.320000,3.666507,0.2400,0.2100,9.5900,0.0000,0.0000,0.0625,0.0000,0.0000,0.0000,16382.0000,183.0000,-194.0000,0.0000,-0.0731
8476398,101275.968750,21.320000,4.082844,0.1800,0.2000,9.5900,0.0625,0.0625,-0.0625,0.0000,0.0000,0.0000,16382.0000,183.0000,-194.0000,0.0000,-0.0380
8507727,101278.117188,21.330000,3.903904,0.2100,0.2100,9.5700,0.1250,0.0000,-0.1250,0.0000,0.0000,0.0000,16382.0000,183.0000,-194.0000,0.0000,0.0481
8537307,101273.132812,21.320000,4.319234,0.2300,0.2000,9.5800,0.0000,0.0000,-0.0625,0.0000,0.0000,0.0000,16382.0000,183.0000,-194.0000,0.0000,0.2214
8566874,101279.890625,21.320000,3.756483,0.2200,0.1900,9.5700,0.0000,0.0000,0.0000,0.0000,0.0000,0.0000,16382.0000,183.0000,-194.0000,0.0000,0.2072
8598249,101277.046875,21.320000,3.993374,0.2200,0.1900,9.5900,0.1250,0.0000,0.0625,0.0000,0.0000,0.0000,16382.0000,183.0000,-194.0000,0.0000,0.2481
8627832,101280.968750,21.320000,3.666507,0.2200,0.2000,9.5700,0.0625,0.1875,-0.0625,0.0000,0.0000,0.0000,16382.0000,183.0000,-194.0000,0.0000,0.2320
8657397,101289.890625,21.330000,2.923343,0.2200,0.2200,9.5800,0.0000,0.0000,0.0625,0.0000,0.0000,0.0000,16382.0000,183.0000,-194.0000,0.0000,0.1808
8696698,101283.812500,21.320000,3.429624,0.2200,0.2100,9.6000,-0.0625,0.0625,0.0000,0.0000,0.0000,0.0000,16382.0000,183.0000,-194.0000,0.0000,0.1564
8727070,101283.117188,21.330000,3.487574,0.2100,0.2000,9.5800,0.0625,-0.0625,0.0625,0.0000,0.0000,0.0000,16382.0000,183.0000,-194.0000,0.0000,0.1664
8757158,101279.203125,21.330000,3.813418,0.2200,0.2000,9.5900,0.0000,0.0000,0.0625,0.0000,0.0000,0.0000,16382.0000,183.0000,-194.0000,0.0000,0.1752
8787255,101270.976562,21.309999,4.498690,0.2300,0.2100,9.5800,0.0625,-0.0625,0.0625,0.0000,0.0000,0.0000,16382.0000,183.0000,-194.0000,0.0000,0.1871
8818588,101280.968750,21.320000,3.666507,0.2400,0.2000,9.5800,-0.0625,0.1250,0.0000,0.0000,0.0000,0.0000,16382.0000,183.0000,-194.0000,0.0000,0.1669
8848131,101277.046875,21.320000,3.993374,0.2200,0.2000,9.5800,0.0000,-0.1250,0.0000,0.0000,0.0000,0.0000,16382.0000,183.0000,-194.0000,0.0000,0.1213
8877707,101293.812500,21.330000,2.597018,0.2000,0.2000,9.5500,-0.0625,0.0625,-0.1250,0.0000,0.0000,0.0000,16382.0000,183.0000,-194.0000,0.0000,0.0220
8909081,101284.890625,21.320000,3.340159,0.2200,0.2100,9.5900,0.1250,-0.0625,0.0000,0.0000,0.0000,0.0000,16382.0000,183.0000,-194.0000,0.0000,-0.0368
8938696,101280.968750,21.320000,3.666507,0.2200,0.2100,9.5700,0.0000,0.0625,0.0625,0.0000,0.0000,0.0000,16382.0000,183.0000,-194.0000,0.0000,-0.0463
8968207,101280.968750,21.320000,3.666507,0.2200,0.2100,9.5600,-0.0625,0.1875,0.0000,0.0000,0.0000,0.0000,16382.0000,183.0000,-194.0000,0.0000,0.0167
8998012,101280.968750,21.320000,3.666507,0.2400,0.2000,9.5800,-0.1250,0.0625,0.0000,0.0000,0.0000,0.0000,16382.0000,183.0000,-194.0000,0.0000,0.0440
9029385,101277.046875,21.320000,3.993374,0.2200,0.2000,9.5800,0.0000,0.0000,0.0000,0.0000,0.0000,0.0000,16382.0000,183.0000,-194.0000,0.0000,0.1047
9059013,101280.968750,21.320000,3.666507,0.2200,0.2000,9.5800,0.0000,-0.0625,0.0000,0.0000,0.0000,0.0000,16382.0000,183.0000,-194.0000,0.0000,0.0918
9088515,101286.656250,21.309999,3.192747,0.2200,0.2100,9.5900,-0.0625,-0.0625,0.0000,0.0000,0.0000,0.0000,16382.0000,183.0000,-194.0000,0.0000,-0.0293
9127853,101277.046875,21.320000,3.993374,0.2400,0.2000,9.5800,-0.0625,-0.1250,0.0625,0.0000,0.0000,0.0000,16382.0000,183.0000,-194.0000,0.0000,-0.0032
9158303,101280.968750,21.320000,3.666507,0.2000,0.1900,9.5800,0.0625,-0.2500,-0.0625,0.0000,0.0000,0.0000,16382.0000,183.0000,-194.0000,0.0000,-0.0358
9188414,101282.039062,21.330000,3.577548,0.2000,0.2100,9.5800,0.0000,0.0000,-0.1250,0.0000,0.0000,0.0000,16382.0000,183.0000,-194.0000,0.0000,0.0610
9218511,101280.968750,21.320000,3.666507,0.2400,0.2000,9.5700,0.0000,-0.0625,0.1250,0.0000,0.0000,0.0000,16382.0000,183.0000,-194.0000,0.0000,0.0907
9249871,101288.812500,21.320000,3.013313,0.2400,0.2100,9.5900,-0.0625,0.0625,0.0000,0.0000,0.0000,0.0000,16382.0000,183.0000,-194.0000,0.0000,0.0420
9279457,101277.046875,21.320000,3.993374,0.2200,0.2100,9.5900,0.0000,0.0625,-0.1250,0.0000,0.0000,0.0000,16382.0000,183.0000,-194.0000,0.0000,0.0682
9320488,101284.890625,21.320000,3.340159,0.2200,0.2000,9.5500,0.0000,0.0625,0.0625,0.0000,0.0000,0.0000,16382.0000,183.0000,-194.0000,0.0000,0.0356
9371596,101292.726562,21.320000,2.687494,0.2300,0.2100,9.5900,0.0000,0.1875,-0.0625,0.0000,0.0000,0.0000,16382.0000,183.0000,-194.0000,0.0000,-0.0736
9401133,101286.656250,21.309999,3.192747,0.2200,0.2100,9.5900,-0.1250,0.2500,-0.1250,0.0000,0.0000,0.0000,16382.0000,183.0000,-194.0000,0.0000,-0.1050
9430696,101283.812500,21.320000,3.429624,0.2300,0.1900,9.5700,0.0625,0.1250,-0.0625,0.0000,0.0000,0.0000,16382.0000,183.0000,-194.0000,0.0000,-0.0926
9462087,101284.890625,21.320000,3.340159,0.2300,0.2000,9.5800,-0.0625,0.0000,0.0000,0.0000,0.0000,0.0000,16382.0000,183.0000,-194.0000,0.0000,-0.1448
9491637,101288.812500,21.320000,3.013313,0.2200,0.2100,9.5700,0.0625,-0.0625,0.0000,0.0000,0.0000,0.0000,16382.0000,183.0000,-194.0000,0.0000,-0.1971
9521213,101280.968750,21.320000,3.666507,0.2100,0.2000,9.5800,0.0625,-0.1250,0.0000,0.0000,0.0000,0.0000,16382.0000,183.0000,-194.0000,0.0000,-0.1864
9550772,101280.968750,21.320000,3.666507,0.2200,0.2100,9.5700,-0.0625,0.2500,-0.0625,0.0000,0.0000,0.0000,16382.0000,183.0000,-194.0000,0.0000,-0.1810
9589373,101277.046875,21.320000,3.993374,0.2100,0.1900,9.5900,-0.1250,0.0625,-0.0625,0.0000,0.0000,0.0000,16382.0000,183.0000,-194.0000,0.0000,-0.0990
9619820,101280.968750,21.320000,3.666507,0.2300,0.2000,9.5900,0.0000,0.0625,0.0000,0.0000,0.0000,0.0000,16382.0000,183.0000,-194.0000,0.0000,-0.1495
9649925,101277.046875,21.320000,3.993374,0.2000,0.2000,9.5700,0.0000,0.1250,0.0000,0.0000,0.0000,0.0000,16382.0000,183.0000,-194.0000,0.0000,-0.1103
9681324,101283.117188,21.330000,3.487574,0.2300,0.1900,9.5600,0.0625,0.1875,0.0625,0.0000,0.0000,0.0000,16382.0000,183.0000,-194.0000,0.0000,-0.0267
9710864,101279.890625,21.320000,3.756483,0.2300,0.2100,9.5600,-0.0625,0.0000,0.0000,0.0000,0.0000,0.0000,16382.0000,183.0000,-194.0000,0.0000,0.0249
9740414,101283.812500,21.320000,3.429624,0.2100,0.2100,9.5800,0.0625,-0.0625,0.1250,0.0000,0.0000,0.0000,16382.0000,183.0000,-194.0000,0.0000,0.0296
9770301,101280.968750,21.320000,3.666507,0.2300,0.2000,9.5700,0.0000,-0.0625,0.0000,0.0000,0.0000,0.0000,16382.0000,183.0000,-194.0000,0.0000,0.0492
9801670,101283.812500,21.320000,3.429624,0.2200,0.2000,9.5800,0.0625,-0.1250,0.0000,0.0000,0.0000,0.0000,16382.0000,183.0000,-194.0000,0.0000,0.0695
9831241,101280.968750,21.320000,3.666507,0.2100,0.2000,9.5700,0.0000,-0.1250,0.1250,0.0000,0.0000,0.0000,16382.0000,183.0000,-194.0000,0.0000,0.0695
9860788,101284.890625,21.320000,3.340159,0.2200,0.2100,9.5600,-0.0625,-0.0625,-0.1250,0.0000,0.0000,0.0000,16382.0000,183.0000,-194.0000,0.0000,0.0404
9892154,101280.968750,21.320000,3.666507,0.2100,0.2000,9.5900,-0.0625,0.1875,-0.0625,0.0000,0.0000,0.0000,16382.0000,183.0000,-194.0000,0.0000,0.0113
9921798,101287.742188,21.320000,3.102267,0.2200,0.2000,9.5600,0.0625,0.1250,0.0625,0.0000,0.0000,0.0000,16382.0000,183.0000,-194.0000,0.0000,-0.0368
9951371,101279.890625,21.320000,3.756483,0.2000,0.2000,9.6000,0.0000,-0.1250,-0.0625,0.0000,0.0000,0.0000,16382.0000,183.0000,-194.0000,0.0000,-0.0605
9981005,101279.890625,21.320000,3.756483,0.2200,0.2000,9.5700,-0.1250,-0.0625,-0.1250,0.0000,0.0000,0.0000,16382.0000,183.0000,-194.0000,0.0000,-0.0419
10020504,101280.968750,21.320000,3.666507,0.2300,0.2200,9.5800,-0.0625,0.1875,0.0000,0.0000,0.0000,0.0000,16382.0000,183.0000,-194.0000,0.0000,-0.0509
10050953,101270.976562,21.309999,4.498690,0.2200,0.2100,9.5800,-0.0625,0.1250,0.0625,0.0000,0.0000,0.0000,16382.0000,183.0000,-194.0000,0.0000,0.0477
10081197,101284.890625,21.320000,3.340159,0.2200,0.1900,9.5700,-0.0625,0.0625,-0.1250,0.0000,0.0000,0.0000,16382.0000,183.0000,-194.0000,0.0000,0.0263
10112565,101278.820312,21.309999,3.845444,0.2200,0.2100,9.5700,-0.1875,0.0625,-0.1250,0.0000,0.0000,0.0000,16382.0000,183.0000,-194.0000,0.0000,0.0774
10142160,101278.820312,21.309999,3.845444,0.2300,0.2000,9.5900,0.0625,-0.0625,-0.0625,0.0000,0.0000,0.0000,16382.0000,183.0000,-194.0000,0.0000,0.0935
10171703,101282.742188,21.309999,3.519090,0.2300,0.2100,9.5800,0.0625,-0.1250,0.1875,0.0000,0.0000,0.0000,16382.0000,183.0000,-194.0000,0.0000,0.1209
10203126,101280.968750,21.320000,3.666507,0.2300,0.2100,9.5900,-0.0625,-0.0625,0.0000,0.0000,0.0000,0.0000,16382.0000,183.0000,-194.0000,0.0000,0.1209
10232678,101279.890625,21.320000,3.756483,0.2200,0.1900,9.5900,-0.0625,0.1250,-0.0625,0.0000,0.0000,0.0000,16382.0000,183.0000,-194.0000,0.0000,0.1696
10262217,101279.890625,21.320000,3.756483,0.2200,0.2000,9.5900,0.0625,-0.0625,0.0000,0.0000,0.0000,0.0000,16382.0000,183.0000,-194.0000,0.0000,0.1631
10291953,101274.898438,21.309999,4.172316,0.2200,0.1900,9.5700,0.0000,-0.0625,0.0000,0.0000,0.0000,0.0000,16382.0000,183.0000,-194.0000,0.0000,0.1910
10323290,101287.742188,21.320000,3.102267,0.2200,0.2000,9.6100,0.1250,-0.1250,-0.0625,0.0000,0.0000,0.0000,16382.0000,183.0000,-194.0000,0.0000,0.1488
10352861,101279.890625,21.320000,3.756483,0.2200,0.2000,9.5900,0.0000,0.0000,0.1250,0.0000,0.0000,0.0000,16382.0000,183.0000,-194.0000,0.0000,0.0894
10382442,101284.890625,21.320000,3.340159,0.1900,0.2100,9.5900,0.1250,-0.0625,0.0000,0.0000,0.0000,0.0000,16382.0000,183.0000,-194.0000,0.0000,0.0959
10421826,101284.890625,21.320000,3.340159,0.2200,0.2100,9.6000,-0.0625,-0.1250,0.0625,0.0000,0.0000,0.0000,16382.0000,183.0000,-194.0000,0.0000,0.0585
10452320,101283.812500,21.320000,3.429624,0.2300,0.2000,9.5700,0.0625,0.0000,0.0000,0.0000,0.0000,0.0000,16382.0000,183.0000,-194.0000,0.0000,0.0002
10482439,101279.890625,21.320000,3.756483,0.2300,0.2000,9.5700,-0.1250,-0.1250,0.0625,0.0000,0.0000,0.0000,16382.0000,183.0000,-194.0000,0.0000,0.0156
10512524,101279.890625,21.320000,3.756483,0.2100,0.2000,9.5800,0.0625,-0.0625,0.0000,0.0000,0.0000,0.0000,16382.0000,183.0000,-194.0000,0.0000,0.0228
10543933,101275.968750,21.320000,4.082844,0.2100,0.2000,9.6100,0.0000,0.1875,-0.1250,0.0000,0.0000,0.0000,16382.0000,183.0000,-194.0000,0.0000,0.0471
10573478,101270.976562,21.309999,4.498690,0.2400,0.2000,9.5700,0.1875,-0.0625,-0.1250,0.0000,0.0000,0.0000,16382.0000,183.0000,-194.0000,0.0000,0.1047
10603050,101279.890625,21.320000,3.756483,0.2100,0.2100,9.5900,0.2500,-0.0625,0.0000,0.0000,0.0000,0.0000,16382.0000,183.0000,-194.0000,0.0000,0.0679
10634381,101280.968750,21.320000,3.666507,0.2000,0.2000,9.5700,0.0625,-0.0625,-0.0625,0.0000,0.0000,0.0000,16382.0000,183.0000,-194.0000,0.0000,0.1243
10663984,101280.968750,21.320000,3.666507,0.2300,0.1800,9.5900,0.0000,0.0000,0.0000,0.0000,0.0000,0.0000,16382.0000,183.0000,-194.0000,0.0000,0.1058
10693584,101291.656250,21.320000,2.776445,0.2200,0.2100,9.5600,0.1250,0.1250,0.0000,0.0000,0.0000,0.0000,16382.0000,183.0000,-194.0000,0.0000,0.0738
10724937,101279.890625,21.320000,3.756483,0.2200,0.2100,9.5900,0.0625,0.0000,0.0000,0.0000,0.0000,0.0000,16382.0000,183.0000,-194.0000,0.0000,0.1136
10754479,101288.812500,21.320000,3.013313,0.2200,0.2000,9.5900,-0.1250,0.0625,0.0000,0.0000,0.0000,0.0000,16382.0000,183.0000,-194.0000,0.0000,0.0833
10784057,101282.039062,21.330000,3.577548,0.2400,0.2000,9.5900,0.0000,-0.0625,0.0625,0.0000,0.0000,0.0000,16382.0000,183.0000,-194.0000,0.0000,0.0672
10813632,101275.968750,21.320000,4.082844,0.2200,0.2100,9.5900,-0.0625,-0.2500,0.0625,0.0000,0.0000,0.0000,16382.0000,183.0000,-194.0000,0.0000,0.0784
10852972,101283.117188,21.330000,3.487574,0.2200,0.2100,9.5400,0.0625,-0.1250,0.1875,0.0000,0.0000,0.0000,16382.0000,183.0000,-194.0000,0.0000,0.0290
10883442,101283.812500,21.320000,3.429624,0.2300,0.1900,9.5700,-0.0625,-0.1875,0.0625,0.0000,0.0000,0.0000,16382.0000,183.0000,-194.0000,0.0000,-0.0797
10923310,101280.968750,21.320000,3.666507,0.2200,0.2000,9.5900,-0.0625,-0.0625,0.0625,0.0000,0.0000,0.0000,16382.0000,183.0000,-194.0000,0.0000,-0.1083
10973505,101280.968750,21.320000,3.666507,0.2200,0.2000,9.5800,-0.0625,0.0625,0.0625,0.0000,0.0000,0.0000,16382.0000,183.0000,-194.0000,0.0000,-0.1177
11004063,101280.968750,21.320000,3.666507,0.2200,0.2100,9.6000,-0.0625,0.0000,-0.1250,0.0000,0.0000,0.0000,16382.0000,183.0000,-194.0000,0.0000,-0.1225
11034117,101274.203125,21.330000,4.230269,0.2400,0.2100,9.5800,0.0000,-0.1875,0.1250,0.0000,0.0000,0.0000,16382.0000,183.0000,-194.0000,0.0000,0.0051
11064245,101283.117188,21.330000,3.487574,0.2000,0.2100,9.5600,-0.0625,0.0625,0.0000,0.0000,0.0000,0.0000,16382.0000,183.0000,-194.0000,0.0000,-0.0313
11095530,101279.203125,21.330000,3.813418,0.2000,0.2100,9.5900,0.0000,-0.0625,0.0000,0.0000,0.0000,0.0000,16382.0000,183.0000,-194.0000,0.0000,0.0458
11125144,101282.039062,21.330000,3.577548,0.2600,0.1900,9.5500,0.0625,-0.1250,0.1250,0.0000,0.0000,0.0000,16382.0000,183.0000,-194.0000,0.0000,0.0476
11154710,101272.046875,21.320000,4.409724,0.2300,0.2100,9.5700,-0.0625,0.0000,0.0625,0.0000,0.0000,0.0000,16382.0000,183.0000,-194.0000,0.0000,0.0719
11186122,101282.039062,21.330000,3.577548,0.2000,0.2100,9.6000,0.0625,0.0000,0.0000,0.0000,0.0000,0.0000,16382.0000,183.0000,-194.0000,0.0000,0.0827
11215659,101274.203125,21.330000,4.230269,0.2200,0.2000,9.6000,-0.1875,-0.0625,0.1250,0.0000,0.0000,0.0000,16382.0000,183.0000,-194.0000,0.0000,0.1580
11245247,101280.968750,21.320000,3.666507,0.2600,0.2000,9.5700,-0.1250,-0.0625,0.1250,0.0000,0.0000,0.0000,16382.0000,183.0000,-194.0000,0.0000,0.1545
11284447,101273.132812,21.320000,4.319234,0.2100,0.2000,9.5600,0.0000,-0.0625,0.0000,0.0000,0.0000,0.0000,16382.0000,183.0000,-194.0000,0.0000,0.2085
11314870,101282.039062,21.330000,3.577548,0.2000,0.2000,9.5900,0.0625,0.0000,-0.0625,0.0000,0.0000,0.0000,16382.0000,183.0000,-194.0000,0.0000,0.1966
11344949,101278.117188,21.330000,3.903904,0.2200,0.1900,9.6000,0.0625,-0.0625,-0.0625,0.0000,0.0000,0.0000,16382.0000,183.0000,-194.0000,0.0000,0.1592
11375089,101278.117188,21.330000,3.903904,0.2400,0.2000,9.6100,0.0000,-0.0625,-0.0625,0.0000,0.0000,0.0000,16382.0000,183.0000,-194.0000,0.0000,0.1914
11406471,101284.890625,21.320000,3.340159,0.2300,0.2000,9.5700,0.0000,-0.0625,0.0000,0.0000,0.0000,0.0000,16382.0000,183.0000,-194.0000,0.0000,0.1506
11436038,101282.039062,21.330000,3.577548,0.2200,0.2000,9.5800,0.0625,0.0625,-0.0625,0.0000,0.0000,0.0000,16382.0000,183.0000,-194.0000,0.0000,0.1458
11465600,101280.968750,21.320000,3.666507,0.2500,0.1900,9.5700,0.1250,-0.0625,0.0000,0.0000,0.0000,0.0000,16382.0000,183.0000,-194.0000,0.0000,0.0715
11497023,101283.117188,21.330000,3.487574,0.2300,0.2000,9.5800,0.0625,0.1250,0.0000,0.0000,0.0000,0.0000,16382.0000,183.0000,-194.0000,0.0000,0.0548
11526553,101283.117188,21.330000,3.487574,0.2000,0.2000,9.5800,0.0000,-0.0625,0.0000,0.0000,0.0000,0.0000,16382.0000,183.0000,-194.0000,0.0000,-0.0141
11556145,101282.039062,21.330000,3.577548,0.2200,0.2000,9.6000,0.0000,0.0000,-0.1250,0.0000,0.0000,0.0000,16382.0000,183.0000,-194.0000,0.0000,-0.0194
11585837,101278.117188,21.330000,3.903904,0.2400,0.2000,9.5800,0.0625,0.0625,-0.0625,0.0000,0.0000,0.0000,16382.0000,183.0000,-194.0000,0.0000,-0.0657
11626522,101285.968750,21.330000,3.250186,0.2200,0.2100,9.6000,0.0625,0.0000,-0.0625,0.0000,0.0000,0.0000,16382.0000,183.0000,-194.0000,0.0000,-0.0734
11656175,101284.187500,21.340000,3.398616,0.2200,0.2100,9.6100,0.0000,0.1250,0.0000,0.0000,0.0000,0.0000,16382.0000,183.0000,-194.0000,0.0000,-0.1251
11686041,101282.039062,21.330000,3.577548,0.2400,0.1900,9.5900,0.0625,0.0000,-0.1250,0.0000,0.0000,0.0000,16382.0000,183.0000,-194.0000,0.0000,-0.1524
11725601,101280.968750,21.320000,3.666507,0.2100,0.2000,9.5800,0.0000,-0.1250,0.1250,0.0000,0.0000,0.0000,16382.0000,183.0000,-194.0000,0.0000,-0.1162
11756168,101288.812500,21.320000,3.013313,0.2200,0.2100,9.5600,0.0000,0.0000,-0.1250,0.0000,0.0000,0.0000,16382.0000,183.0000,-194.0000,0.0000,-0.1625
11786253,101283.117188,21.330000,3.487574,0.2400,0.2000,9.5800,0.0000,0.0625,-0.1250,0.0000,0.0000,0.0000,16382.0000,183.0000,-194.0000,0.0000,-0.1768
11817590,101283.117188,21.330000,3.487574,0.2100,0.2000,9.5800,0.1250,-0.1250,0.0000,0.0000,0.0000,0.0000,16382.0000,183.0000,-194.0000,0.0000,-0.1715
11847168,101283.117188,21.330000,3.487574,0.1900,0.1900,9.5700,-0.0625,0.0625,0.0625,0.0000,0.0000,0.0000,16382.0000,183.0000,-194.0000,0.0000,-0.1661
11876802,101282.039062,21.330000,3.577548,0.2200,0.2000,9.6600,-0.1875,-0.1875,0.1250,0.0000,0.0000,0.0000,16382.0000,183.0000,-194.0000,0.0000,-0.1542
11906699,101283.117188,21.330000,3.487574,0.2300,0.2100,9.5900,-0.1250,-0.1875,-0.0625,0.0000,0.0000,0.0000,16382.0000,183.0000,-194.0000,0.0000,-0.2035
11938079,101275.281250,21.330000,4.140289,0.2200,0.2100,9.6000,0.0000,0.0000,0.0625,0.0000,0.0000,0.0000,16382.0000,183.0000,-194.0000,0.0000,-0.1222
11967668,101276.351562,21.340000,4.051326,0.1900,0.2000,9.5800,-0.0625,-0.1250,0.0000,0.0000,0.0000,0.0000,16382.0000,183.0000,-194.0000,0.0000,-0.0711
11997230,101285.273438,21.340000,3.308135,0.2200,0.1800,9.5800,0.0000,0.0625,0.0625,0.0000,0.0000,0.0000,16382.0000,183.0000,-194.0000,0.0000,-0.0974
12028606,101284.187500,21.340000,3.398616,0.2200,0.1900,9.5900,-0.0625,-0.1250,0.0625,0.0000,0.0000,0.0000,16382.0000,183.0000,-194.0000,0.0000,-0.1236
12058201,101283.117188,21.330000,3.487574,0.2400,0.2100,9.5800,-0.0625,-0.0625,0.1250,0.0000,0.0000,0.0000,16382.0000,183.0000,-194.0000,0.0000,-0.0708
12087781,101280.968750,21.320000,3.666507,0.2100,0.2000,9.5900,-0.0625,-0.0625,-0.0625,0.0000,0.0000,0.0000,16382.0000,183.0000,-194.0000,0.0000,-0.0511
12117423,101290.960938,21.330000,2.834391,0.2200,0.1900,9.5900,0.0000,0.0625,-0.0625,0.0000,0.0000,0.0000,16382.0000,183.0000,-194.0000,0.0000,-0.0915
12156929,101279.203125,21.330000,3.813418,0.2100,0.2100,9.5600,0.0000,-0.0625,-0.0625,0.0000,0.0000,0.0000,16382.0000,183.0000,-194.0000,0.0000,-0.0452
12187382,101282.039062,21.330000,3.577548,0.2200,0.2100,9.5600,0.0000,0.0625,0.0625,0.0000,0.0000,0.0000,16382.0000,183.0000,-194.0000,0.0000,-0.0416
12217677,101275.281250,21.330000,4.140289,0.2200,0.2000,9.5700,-0.1250,-0.1250,-0.0625,0.0000,0.0000,0.0000,16382.0000,183.0000,-194.0000,0.0000,0.0142
12249027,101279.203125,21.330000,3.813418,0.2000,0.2000,9.5700,-0.1250,-0.0625,0.0000,0.0000,0.0000,0.0000,16382.0000,183.0000,-194.0000,0.0000,-0.0214
12278654,101275.281250,21.330000,4.140289,0.2400,0.2000,9.5700,0.0000,0.1250,-0.0625,0.0000,0.0000,0.0000,16382.0000,183.0000,-194.0000,0.0000,-0.0398
12308183,101279.203125,21.330000,3.813418,0.2300,0.2100,9.6000,-0.0625,0.1250,-0.0625,0.0000,0.0000,0.0000,16382.0000,183.0000,-194.0000,0.0000,0.0096
12339588,101276.351562,21.340000,4.051326,0.2200,0.2100,9.5700,0.0000,0.0000,0.0000,0.0000,0.0000,0.0000,16382.0000,183.0000,-194.0000,0.0000,0.0541
12369127,101279.203125,21.330000,3.813418,0.2000,0.2100,9.5800,-0.0625,0.0625,-0.0625,0.0000,0.0000,0.0000,16382.0000,183.0000,-194.0000,0.0000,0.0820
12398738,101279.570312,21.350000,3.782917,0.2300,0.1900,9.5800,0.0625,0.1250,0.0625,0.0000,0.0000,0.0000,16382.0000,183.0000,-194.0000,0.0000,0.0996
12439757,101270.281250,21.330000,4.556645,0.2300,0.2000,9.5800,-0.0625,0.0625,-0.0625,0.0000,0.0000,0.0000,16382.0000,183.0000,-194.0000,0.0000,0.2505
12491542,101279.203125,21.330000,3.813418,0.2000,0.2000,9.5700,-0.0625,0.0625,0.0625,0.0000,0.0000,0.0000,16382.0000,183.0000,-194.0000,0.0000,0.2428
12521061,101276.351562,21.340000,4.051326,0.2300,0.2000,9.5800,0.0000,0.0000,0.0625,0.0000,0.0000,0.0000,16382.0000,183.0000,-194.0000,0.0000,0.2825
12550635,101283.117188,21.330000,3.487574,0.2300,0.2100,9.5700,-0.0625,0.1250,0.0625,0.0000,0.0000,0.0000,16382.0000,183.0000,-194.0000,0.0000,0.2208
12588554,101292.031250,21.340000,2.745439,0.1900,0.2000,9.5900,0.0625,-0.0625,0.0625,0.0000,0.0000,0.0000,16382.0000,183.0000,-194.0000,0.0000,0.1324
12618841,101275.281250,21.330000,4.140289,0.2200,0.1800,9.5700,0.0000,0.0000,0.0000,0.0000,0.0000,0.0000,16382.0000,183.0000,-194.0000,0.0000,0.1342
12648931,101279.203125,21.330000,3.813418,0.2200,0.1900,9.5800,0.0000,0.1250,0.0625,0.0000,0.0000,0.0000,16382.0000,183.0000,-194.0000,0.0000,0.1277
12679017,101284.187500,21.340000,3.398616,0.2100,0.2000,9.5800,0.0000,0.0625,0.1250,0.0000,0.0000,0.0000,16382.0000,183.0000,-194.0000,0.0000,0.0707
12710355,101293.109375,21.340000,2.655471,0.2300,0.2100,9.5800,-0.0625,0.1250,0.0000,0.0000,0.0000,0.0000,16382.0000,183.0000,-194.0000,0.0000,-0.0267
12739992,101283.117188,21.330000,3.487574,0.2300,0.1900,9.5900,0.0000,0.0625,-0.1250,0.0000,0.0000,0.0000,16382.0000,183.0000,-194.0000,0.0000,-0.0378
12769506,101276.351562,21.340000,4.051326,0.2400,0.2200,9.5700,0.0000,0.1250,-0.0625,0.0000,0.0000,0.0000,16382.0000,183.0000,-194.0000,0.0000,-0.0978
12800895,101279.203125,21.330000,3.813418,0.2200,0.2200,9.5800,0.0000,0.2500,0.1875,0.0000,0.0000,0.0000,16382.0000,183.0000,-194.0000,0.0000,-0.0894
12830407,101283.117188,21.330000,3.487574,0.2200,0.2000,9.5900,-0.1250,0.1875,-0.1250,0.0000,0.0000,0.0000,16382.0000,183.0000,-194.0000,0.0000,-0.1422
12860038,101284.890625,21.320000,3.340159,0.2100,0.2100,9.5700,0.1250,-0.0625,0.0000,0.0000,0.0000,0.0000,16382.0000,183.0000,-194.0000,0.0000,-0.1374
12891347,101292.726562,21.320000,2.687494,0.2200,0.2000,9.5700,0.0000,0.0625,0.0000,0.0000,0.0000,0.0000,16382.0000,183.0000,-194.0000,0.0000,-0.1254
12920943,101283.117188,21.330000,3.487574,0.2400,0.1900,9.5900,-0.1250,0.1250,0.0000,0.0000,0.0000,0.0000,16382.0000,183.0000,-194.0000,0.0000,-0.1823
12950568,101279.203125,21.330000,3.813418,0.2300,0.2100,9.5700,0.0000,0.0000,0.0000,0.0000,0.0000,0.0000,16382.0000,183.0000,-194.0000,0.0000,-0.1805
12980115,101283.117188,21.330000,3.487574,0.2100,0.2000,9.5900,0.0000,-0.1250,-0.0625,0.0000,0.0000,0.0000,16382.0000,183.0000,-194.0000,0.0000,-0.1746
13019631,101285.968750,21.330000,3.250186,0.2200,0.1900,9.5900,0.0000,0.0625,-0.0625,0.0000,0.0000,0.0000,16382.0000,183.0000,-194.0000,0.0000,-0.1085
13050114,101282.039062,21.330000,3.577548,0.2300,0.2000,9.5700,-0.0625,0.0000,0.0000,0.0000,0.0000,0.0000,16382.0000,183.0000,-194.0000,0.0000,-0.0978
13080218,101266.359375,21.330000,4.883540,0.2200,0.2000,9.5700,-0.0625,0.0625,0.0625,0.0000,0.0000,0.0000,16382.0000,183.0000,-194.0000,0.0000,-0.0425
13111594,101282.039062,21.330000,3.577548,0.2100,0.2000,9.5900,-0.1875,0.1875,-0.1250,0.0000,0.0000,0.0000,16382.0000,183.0000,-194.0000,0.0000,-0.0678
13141185,101282.039062,21.330000,3.577548,0.2300,0.2100,9.5700,-0.0625,0.0625,-0.0625,0.0000,0.0000,0.0000,16382.0000,183.0000,-194.0000,0.0000,-0.0589
13170743,101277.046875,21.320000,3.993374,0.2300,0.2000,9.5800,0.0625,0.2500,0.0000,0.0000,0.0000,0.0000,16382.0000,183.0000,-194.0000,0.0000,0.0047
13200682,101284.187500,21.340000,3.398616,0.2000,0.2100,9.5600,-0.0625,-0.0625,0.0000,0.0000,0.0000,0.0000,16382.0000,183.0000,-194.0000,0.0000,0.0728
13232095,101277.046875,21.320000,3.993374,0.2300,0.2000,9.5700,-0.0625,-0.1250,0.1250,0.0000,0.0000,0.0000,16382.0000,183.0000,-194.0000,0.0000,0.1115
13261635,101283.117188,21.330000,3.487574,0.2200,0.2000,9.6000,0.0625,0.0000,-0.1875,0.0000,0.0000,0.0000,16382.0000,183.0000,-194.0000,0.0000,0.0807
13291196,101288.812500,21.320000,3.013313,0.2300,0.2100,9.5800,0.0625,0.1875,-0.0625,0.0000,0.0000,0.0000,16382.0000,183.0000,-194.0000,0.0000,0.0464
13322550,101282.039062,21.330000,3.577548,0.2100,0.2100,9.5900,0.0625,-0.0625,-0.0625,0.0000,0.0000,0.0000,16382.0000,183.0000,-194.0000,0.0000,0.0678
13352133,101278.117188,21.330000,3.903904,0.2100,0.1900,9.5600,-0.0625,-0.2500,-0.0625,0.0000,0.0000,0.0000,16382.0000,183.0000,-194.0000,0.0000,0.0921
13381751,101280.968750,21.320000,3.666507,0.2300,0.2200,9.5700,0.1250,-0.1875,0.0000,0.0000,0.0000,0.0000,16382.0000,183.0000,-194.0000,0.0000,-0.0332
13420880,101274.203125,21.330000,4.230269,0.2100,0.2200,9.5800,0.0000,-0.0625,-0.0625,0.0000,0.0000,0.0000,16382.0000,183.0000,-194.0000,0.0000,0.0173
13451378,101275.281250,21.330000,4.140289,0.2200,0.1900,9.5800,0.0000,0.0625,-0.1250,0.0000,0.0000,0.0000,16382.0000,183.0000,-194.0000,0.0000,0.0623
13481443,101278.117188,21.330000,3.903904,0.2200,0.2100,9.5800,0.0625,-0.0625,-0.1250,0.0000,0.0000,0.0000,16382.0000,183.0000,-194.0000,0.0000,0.0450
13511523,101280.273438,21.340000,3.724458,0.2300,0.2000,9.5900,0.1875,0.1250,0.0000,0.0000,0.0000,0.0000,16382.0000,183.0000,-194.0000,0.0000,0.0859
13542853,101294.882812,21.330000,2.507560,0.2200,0.2000,9.5700,0.0625,-0.3750,0.0000,0.0000,0.0000,0.0000,16382.0000,183.0000,-194.0000,0.0000,-0.0318
13572477,101282.039062,21.330000,3.577548,0.2200,0.2100,9.5600,0.0000,-0.2500,-0.0625,0.0000,0.0000,0.0000,16382.0000,183.0000,-194.0000,0.0000,-0.0282
13602008,101287.039062,21.330000,3.161231,0.2000,0.2000,9.6100,0.1250,-0.2500,0.0000,0.0000,0.0000,0.0000,16382.0000,183.0000,-194.0000,0.0000,-0.0086
13633349,101278.117188,21.330000,3.903904,0.2300,0.2100,9.5600,-0.0625,0.0000,0.0000,0.0000,0.0000,0.0000,16382.0000,183.0000,-194.0000,0.0000,0.0157
13662946,101290.960938,21.330000,2.834391,0.2400,0.2100,9.5800,0.1250,0.0000,0.0000,0.0000,0.0000,0.0000,16382.0000,183.0000,-194.0000,0.0000,-0.0746
13692581,101273.132812,21.320000,4.319234,0.2200,0.2100,9.5900,-0.0625,-0.0625,0.0000,0.0000,0.0000,0.0000,16382.0000,183.0000,-194.0000,0.0000,-0.0391
13722301,101280.273438,21.340000,3.724458,0.2200,0.2100,9.5700,0.0625,0.0000,-0.0625,0.0000,0.0000,0.0000,16382.0000,183.0000,-194.0000,0.0000,-0.0879
13753705,101282.039062,21.330000,3.577548,0.2300,0.2200,9.5700,0.0000,0.1250,-0.0625,0.0000,0.0000,0.0000,16382.0000,183.0000,-194.0000,0.0000,-0.1442
13783258,101284.187500,21.340000,3.398616,0.2200,0.2100,9.5500,-0.1250,-0.0625,0.0000,0.0000,0.0000,0.0000,16382.0000,183.0000,-194.0000,0.0000,-0.1798
13812828,101279.203125,21.330000,3.813418,0.2200,0.2100,9.5900,-0.0625,0.2500,0.0625,0.0000,0.0000,0.0000,16382.0000,183.0000,-194.0000,0.0000,-0.1709
13852197,101279.203125,21.330000,3.813418,0.2200,0.2000,9.5400,0.0625,-0.2500,0.1250,0.0000,0.0000,0.0000,16382.0000,183.0000,-194.0000,0.0000,-0.0338
13882728,101279.203125,21.330000,3.813418,0.2200,0.2000,9.5700,0.0000,0.1250,0.0625,0.0000,0.0000,0.0000,16382.0000,183.0000,-194.0000,0.0000,-0.0102
13912797,101288.109375,21.340000,3.071768,0.2200,0.2000,9.6100,0.0000,0.1250,0.0625,0.0000,0.0000,0.0000,16382.0000,183.0000,-194.0000,0.0000,0.0004
13944184,101275.281250,21.330000,4.140289,0.2300,0.2100,9.6100,-0.1250,0.0000,0.0625,0.0000,0.0000,0.0000,16382.0000,183.0000,-194.0000,0.0000,0.0175
13973752,101282.039062,21.330000,3.577548,0.2000,0.2000,9.5700,0.0625,-0.0625,-0.0625,0.0000,0.0000,0.0000,16382.0000,183.0000,-194.0000,0.0000,0.0959
14003356,101283.117188,21.330000,3.487574,0.2200,0.1900,9.6100,-0.0625,0.1250,0.0000,0.0000,0.0000,0.0000,16382.0000,183.0000,-194.0000,0.0000,0.0341
14033230,101275.281250,21.330000,4.140289,0.2300,0.1900,9.6000,0.0000,0.1875,0.0000,0.0000,0.0000,0.0000,16382.0000,183.0000,-194.0000,0.0000,0.0692
14064587,101281.343750,21.340000,3.635499,0.2200,0.2100,9.5700,0.0000,-0.0625,0.0625,0.0000,0.0000,0.0000,16382.0000,183.0000,-194.0000,0.0000,0.0833
14094105,101282.039062,21.330000,3.577548,0.2000,0.1900,9.5800,-0.1250,0.1250,0.0000,0.0000,0.0000,0.0000,16382.0000,183.0000,-194.0000,0.0000,0.0994
14123682,101283.117188,21.330000,3.487574,0.2300,0.2000,9.5800,0.0000,0.0000,-0.0625,0.0000,0.0000,0.0000,16382.0000,183.0000,-194.0000,0.0000,0.0520
14155075,101282.039062,21.330000,3.577548,0.2400,0.2100,9.5700,0.0000,-0.1875,-0.1250,0.0000,0.0000,0.0000,16382.0000,183.0000,-194.0000,0.0000,0.0396
14184686,101271.359375,21.330000,4.466662,0.2200,0.1900,9.5900,-0.0625,0.0000,0.0625,0.0000,0.0000,0.0000,16382.0000,183.0000,-194.0000,0.0000,0.0919
14214239,101285.968750,21.330000,3.250186,0.2200,0.1900,9.5800,0.0625,0.0625,-0.0625,0.0000,0.0000,0.0000,16382.0000,183.0000,-194.0000,0.0000,0.1127
14253589,101280.273438,21.340000,3.724458,0.2200,0.2000,9.5500,0.0000,0.0000,0.0000,0.0000,0.0000,0.0000,16382.0000,183.0000,-194.0000,0.0000,0.0497
14312841,101285.273438,21.340000,3.308135,0.2200,0.1900,9.5700,0.0625,0.0000,-0.0625,0.0000,0.0000,0.0000,16382.0000,183.0000,-194.0000,0.0000,0.0264
14343858,101283.117188,21.330000,3.487574,0.2200,0.1900,9.5900,0.0000,0.1250,0.0625,0.0000,0.0000,0.0000,16382.0000,183.0000,-194.0000,0.0000,0.0377
14374167,101292.031250,21.340000,2.745439,0.2300,0.2000,9.5800,0.0000,-0.0625,-0.0625,0.0000,0.0000,0.0000,16382.0000,183.0000,-194.0000,0.0000,-0.0805
14405514,101287.039062,21.330000,3.161231,0.2300,0.2000,9.5900,-0.1250,0.1875,0.0000,0.0000,0.0000,0.0000,16382.0000,183.0000,-194.0000,0.0000,-0.1214
14435140,101297.031250,21.340000,2.328647,0.2200,0.1900,9.5800,-0.1250,-0.1250,-0.1250,0.0000,0.0000,0.0000,16382.0000,183.0000,-194.0000,0.0000,-0.2260
14464685,101277.421875,21.340000,3.961856,0.2300,0.1900,9.5800,-0.0625,0.1250,-0.0625,0.0000,0.0000,0.0000,16382.0000,183.0000,-194.0000,0.0000,-0.2041
14496057,101281.343750,21.340000,3.635499,0.2100,0.1900,9.5800,0.0000,-0.1250,0.0000,0.0000,0.0000,0.0000,16382.0000,183.0000,-194.0000,0.0000,-0.2012
14525662,101277.421875,21.340000,3.961856,0.2200,0.2100,9.5900,-0.0625,0.1250,-0.0625,0.0000,0.0000,0.0000,16382.0000,183.0000,-194.0000,0.0000,-0.2547
14555265,101277.421875,21.340000,3.961856,0.2200,0.1900,9.5800,0.0625,-0.0625,-0.1250,0.0000,0.0000,0.0000,16382.0000,183.0000,-194.0000,0.0000,-0.1930
14584924,101281.343750,21.340000,3.635499,0.2200,0.2000,9.5800,0.0000,0.0000,0.0625,0.0000,0.0000,0.0000,16382.0000,183.0000,-194.0000,0.0000,-0.2096
14616322,101286.343750,21.350000,3.218671,0.2300,0.2100,9.6000,0.0000,0.1875,0.0000,0.0000,0.0000,0.0000,16382.0000,183.0000,-194.0000,0.0000,-0.2114
14645916,101285.273438,21.340000,3.308135,0.2100,0.2000,9.5700,-0.1875,0.0000,0.1250,0.0000,0.0000,0.0000,16382.0000,183.0000,-194.0000,0.0000,-0.1978
14675513,101287.421875,21.350000,3.129207,0.2300,0.2100,9.5800,0.1250,0.0000,0.0000,0.0000,0.0000,0.0000,16382.0000,183.0000,-194.0000,0.0000,-0.1505
14714834,101279.203125,21.330000,3.813418,0.2100,0.1900,9.6000,0.0000,0.1875,0.0000,0.0000,0.0000,0.0000,16382.0000,183.0000,-194.0000,0.0000,-0.0900
14745320,101283.117188,21.330000,3.487574,0.2200,0.2200,9.6000,0.1250,0.0625,-0.0625,0.0000,0.0000,0.0000,16382.0000,183.0000,-194.0000,0.0000,0.0360
14775446,101282.421875,21.350000,3.545523,0.2200,0.2000,9.5400,0.0000,0.0625,0.0625,0.0000,0.0000,0.0000,16382.0000,183.0000,-194.0000,0.0000,-0.0085
14805522,101275.281250,21.330000,4.140289,0.2200,0.2000,9.5900,0.0625,-0.1250,0.0000,0.0000,0.0000,0.0000,16382.0000,183.0000,-194.0000,0.0000,0.0390
14836866,101280.273438,21.340000,3.724458,0.2300,0.2000,9.5700,0.0000,0.0625,0.0000,0.0000,0.0000,0.0000,16382.0000,183.0000,-194.0000,0.0000,0.0105
14866456,101288.109375,21.340000,3.071768,0.2300,0.2100,9.5800,0.0000,0.0000,0.0625,0.0000,0.0000,0.0000,16382.0000,183.0000,-194.0000,0.0000,-0.0796
14896049,101277.421875,21.340000,3.961856,0.2200,0.2200,9.5600,0.0000,-0.3125,0.0000,0.0000,0.0000,0.0000,16382.0000,183.0000,-194.0000,0.0000,-0.0547
14927478,101281.343750,21.340000,3.635499,0.2300,0.2000,9.5700,0.1250,0.0000,0.0000,0.0000,0.0000,0.0000,16382.0000,183.0000,-194.0000,0.0000,-0.0076
14957019,101282.421875,21.350000,3.545523,0.2000,0.1900,9.5800,0.1250,-0.1875,0.0000,0.0000,0.0000,0.0000,16382.0000,183.0000,-194.0000,0.0000,0.0185
14986624,101289.187500,21.340000,2.982306,0.2300,0.1900,9.5700,0.0000,-0.1250,0.0625,0.0000,0.0000,0.0000,16382.0000,183.0000,-194.0000,0.0000,0.0288
15026280,101286.343750,21.350000,3.218671,0.2200,0.2000,9.5700,0.0625,-0.2500,0.0000,0.0000,0.0000,0.0000,16382.0000,183.0000,-194.0000,0.0000,-0.0123
15056228,101285.273438,21.340000,3.308135,0.2200,0.2000,9.5700,0.0000,-0.0625,0.0000,0.0000,0.0000,0.0000,16382.0000,183.0000,-194.0000,0.0000,-0.0183
15086344,101280.273438,21.340000,3.724458,0.2000,0.2100,9.5900,-0.1250,-0.1250,0.0000,0.0000,0.0000,0.0000,16382.0000,183.0000,-194.0000,0.0000,-0.0004
15116502,101286.343750,21.350000,3.218671,0.2100,0.1900,9.5800,0.1250,-0.0625,0.0000,0.0000,0.0000,0.0000,16382.0000,183.0000,-194.0000,0.0000,-0.1068
15156079,101285.273438,21.340000,3.308135,0.2400,0.1900,9.5900,0.0000,-0.1250,-0.0625,0.0000,0.0000,0.0000,16382.0000,183.0000,-194.0000,0.0000,-0.1430
15186553,101285.273438,21.340000,3.308135,0.2300,0.2000,9.5600,0.0625,-0.1250,-0.0625,0.0000,0.0000,0.0000,16382.0000,183.0000,-194.0000,0.0000,-0.1223
15216716,101279.570312,21.350000,3.782917,0.2200,0.2000,9.5900,0.0000,0.0000,-0.1250,0.0000,0.0000,0.0000,16382.0000,183.0000,-194.0000,0.0000,-0.1378
15248129,101281.343750,21.340000,3.635499,0.2300,0.2000,9.5600,0.0000,0.0000,-0.0625,0.0000,0.0000,0.0000,16382.0000,183.0000,-194.0000,0.0000,-0.1538
15277649,101281.343750,21.340000,3.635499,0.2200,0.2000,9.5800,-0.0625,0.1875,-0.1250,0.0000,0.0000,0.0000,16382.0000,183.0000,-194.0000,0.0000,-0.1312
15307243,101277.421875,21.340000,3.961856,0.2200,0.1900,9.5500,0.0625,0.0625,0.0000,0.0000,0.0000,0.0000,16382.0000,183.0000,-194.0000,0.0000,-0.0379
15337114,101277.421875,21.340000,3.961856,0.2200,0.2100,9.5700,0.0625,0.1875,0.0000,0.0000,0.0000,0.0000,16382.0000,183.0000,-194.0000,0.0000,0.0287
15368537,101279.570312,21.350000,3.782917,0.2100,0.2000,9.5900,-0.1250,0.1875,-0.0625,0.0000,0.0000,0.0000,16382.0000,183.0000,-194.0000,0.0000,0.0685
15398101,101277.421875,21.340000,3.961856,0.2400,0.2000,9.6100,-0.1250,0.1875,0.0625,0.0000,0.0000,0.0000,16382.0000,183.0000,-194.0000,0.0000,0.0893
15427628,101280.648438,21.350000,3.693449,0.2200,0.2000,9.5600,0.1250,-0.0625,0.0000,0.0000,0.0000,0.0000,16382.0000,183.0000,-194.0000,0.0000,0.1391
15459010,101273.500000,21.340000,4.288732,0.2500,0.2100,9.5900,0.1250,0.2500,-0.1250,0.0000,0.0000,0.0000,16382.0000,183.0000,-194.0000,0.0000,0.2277
15488580,101285.273438,21.340000,3.308135,0.2200,0.1900,9.5700,-0.0625,0.0625,0.0625,0.0000,0.0000,0.0000,16382.0000,183.0000,-194.0000,0.0000,0.2230
15518205,101281.343750,21.340000,3.635499,0.2200,0.2100,9.5700,0.0625,0.0625,0.0625,0.0000,0.0000,0.0000,16382.0000,183.0000,-194.0000,0.0000,0.2183
15587259,101278.500000,21.350000,3.872386,0.2200,0.1900,9.5600,-0.1250,0.1250,-0.0625,0.0000,0.0000,0.0000,16382.0000,183.0000,-194.0000,0.0000,0.2361
15617861,101286.343750,21.350000,3.218671,0.2300,0.2100,9.5700,0.1250,-0.1250,0.0625,0.0000,0.0000,0.0000,16382.0000,183.0000,-194.0000,0.0000,0.1998
15647984,101276.351562,21.340000,4.051326,0.2200,0.2100,9.5800,-0.0625,0.0625,0.0625,0.0000,0.0000,0.0000,16382.0000,183.0000,-194.0000,0.0000,0.2105
15678132,101294.179688,21.350000,2.566521,0.2400,0.2200,9.5900,-0.1250,0.0000,0.0625,0.0000,0.0000,0.0000,16382.0000,183.0000,-194.0000,0.0000,0.0924
15709428,101275.648438,21.350000,4.109787,0.2300,0.2000,9.5800,0.0000,0.0000,0.0000,0.0000,0.0000,0.0000,16382.0000,183.0000,-194.0000,0.0000,0.1144
15739059,101284.187500,21.340000,3.398616,0.2200,0.2100,9.6100,-0.1250,0.0625,0.0000,0.0000,0.0000,0.0000,16382.0000,183.0000,-194.0000,0.0000,0.0599
15768635,101276.351562,21.340000,4.051326,0.2200,0.2100,9.5800,-0.1250,0.0625,-0.0625,0.0000,0.0000,0.0000,16382.0000,183.0000,-194.0000,0.0000,0.0862
15800012,101281.343750,21.340000,3.635499,0.2200,0.1900,9.6000,0.0625,0.0000,0.0000,0.0000,0.0000,0.0000,16382.0000,183.0000,-194.0000,0.0000,0.0375
15829608,101276.351562,21.340000,4.051326,0.2300,0.1900,9.5700,0.1250,0.0625,-0.0625,0.0000,0.0000,0.0000,16382.0000,183.0000,-194.0000,0.0000,0.0958
15859189,101277.421875,21.340000,3.961856,0.2200,0.2000,9.5600,0.0625,-0.1250,0.0000,0.0000,0.0000,0.0000,16382.0000,183.0000,-194.0000,0.0000,0.1237
15888758,101286.343750,21.350000,3.218671,0.2200,0.2100,9.5800,0.1250,-0.0625,0.0000,0.0000,0.0000,0.0000,16382.0000,183.0000,-194.0000,0.0000,0.0601
15920162,101291.343750,21.350000,2.802368,0.2400,0.1900,9.5900,0.0000,0.0000,-0.1875,0.0000,0.0000,0.0000,16382.0000,183.0000,-194.0000,0.0000,0.0322
15949712,101279.570312,21.350000,3.782917,0.2000,0.2200,9.5700,0.0000,0.0625,-0.0625,0.0000,0.0000,0.0000,16382.0000,183.0000,-194.0000,0.0000,-0.0154
15979279,101285.273438,21.340000,3.308135,0.2200,0.2200,9.6000,0.0000,0.0000,-0.1250,0.0000,0.0000,0.0000,16382.0000,183.0000,-194.0000,0.0000,0.0558
16018620,101283.492188,21.350000,3.456565,0.2300,0.1900,9.5700,-0.0625,0.0625,0.0625,0.0000,0.0000,0.0000,16382.0000,183.0000,-194.0000,0.0000,-0.0321
16049093,101283.492188,21.350000,3.456565,0.2100,0.1900,9.5700,-0.0625,-0.0625,-0.0625,0.0000,0.0000,0.0000,16382.0000,183.0000,-194.0000,0.0000,-0.0162
16079219,101269.578125,21.340000,4.615109,0.2200,0.2100,9.5700,0.0625,-0.1250,0.0000,0.0000,0.0000,0.0000,16382.0000,183.0000,-194.0000,0.0000,0.0206
16110636,101276.351562,21.340000,4.051326,0.2200,0.2100,9.5700,0.0000,0.0000,0.0000,0.0000,0.0000,0.0000,16382.0000,183.0000,-194.0000,0.0000,0.0604
16140183,101277.421875,21.340000,3.961856,0.2200,0.1900,9.5800,0.1875,0.0000,0.0625,0.0000,0.0000,0.0000,16382.0000,183.0000,-194.0000,0.0000,0.0514
16169756,101297.406250,21.360001,2.297642,0.2200,0.2100,9.5900,0.0625,0.0000,-0.0625,0.0000,0.0000,0.0000,16382.0000,183.0000,-194.0000,0.0000,-0.0882
16199639,101275.648438,21.350000,4.109787,0.2000,0.2100,9.5800,0.0000,0.1250,-0.0625,0.0000,0.0000,0.0000,16382.0000,183.0000,-194.0000,0.0000,-0.0169
16231044,101293.109375,21.340000,2.655471,0.2200,0.2000,9.5600,0.0000,0.0625,0.0000,0.0000,0.0000,0.0000,16382.0000,183.0000,-194.0000,0.0000,-0.0186
16260593,101273.500000,21.340000,4.288732,0.2200,0.2000,9.5600,0.0000,0.0000,-0.1250,0.0000,0.0000,0.0000,16382.0000,183.0000,-194.0000,0.0000,0.0088
16290165,101278.500000,21.350000,3.872386,0.2200,0.2100,9.5600,0.0625,0.1875,-0.0625,0.0000,0.0000,0.0000,16382.0000,183.0000,-194.0000,0.0000,0.0641
16321548,101285.273438,21.340000,3.308135,0.2300,0.2000,9.5900,0.0625,0.0000,0.0625,0.0000,0.0000,0.0000,16382.0000,183.0000,-194.0000,0.0000,0.0528
16351116,101280.273438,21.340000,3.724458,0.2200,0.2200,9.5700,0.1250,-0.0625,0.0000,0.0000,0.0000,0.0000,16382.0000,183.0000,-194.0000,0.0000,0.0760
16380690,101279.570312,21.350000,3.782917,0.2300,0.2000,9.5900,0.1250,-0.0625,-0.0625,0.0000,0.0000,0.0000,16382.0000,183.0000,-194.0000,0.0000,-0.0001
16410341,101280.648438,21.350000,3.693449,0.2300,0.2000,9.5800,0.0000,0.1250,-0.0625,0.0000,0.0000,0.0000,16382.0000,183.0000,-194.0000,0.0000,-0.0352
16449834,101279.570312,21.350000,3.782917,0.2100,0.2100,9.5800,0.0625,0.1250,0.0625,0.0000,0.0000,0.0000,16382.0000,183.0000,-194.0000,0.0000,-0.0673
16480378,101277.421875,21.340000,3.961856,0.2200,0.2000,9.5900,-0.0625,-0.0625,0.0625,0.0000,0.0000,0.0000,16382.0000,183.0000,-194.0000,0.0000,0.0991
16510471,101283.492188,21.350000,3.456565,0.2500,0.2100,9.5900,0.0625,-0.0625,-0.0625,0.0000,0.0000,0.0000,16382.0000,183.0000,-194.0000,0.0000,0.0373
16541851,101284.570312,21.350000,3.366592,0.2200,0.2000,9.5900,0.0625,0.1250,0.0000,0.0000,0.0000,0.0000,16382.0000,183.0000,-194.0000,0.0000,0.1120
16571445,101279.570312,21.350000,3.782917,0.2000,0.2000,9.5600,0.1250,-0.1875,-0.0625,0.0000,0.0000,0.0000,16382.0000,183.0000,-194.0000,0.0000,0.0454
16601076,101290.257812,21.350000,2.892845,0.2200,0.2000,9.6000,0.1250,-0.1875,-0.0625,0.0000,0.0000,0.0000,16382.0000,183.0000,-194.0000,0.0000,-0.0460
16632377,101275.648438,21.350000,4.109787,0.2200,0.2100,9.5900,0.0625,0.0000,0.0000,0.0000,0.0000,0.0000,16382.0000,183.0000,-194.0000,0.0000,0.0181
16661961,101279.570312,21.350000,3.782917,0.2200,0.2000,9.5600,-0.0625,0.2500,-0.1250,0.0000,0.0000,0.0000,16382.0000,183.0000,-194.0000,0.0000,0.0228
16691525,101289.570312,21.360001,2.950283,0.2200,0.2100,9.5800,0.0000,0.0625,0.0000,0.0000,0.0000,0.0000,16382.0000,183.0000,-194.0000,0.0000,-0.0551
16721300,101289.570312,21.360001,2.950283,0.2200,0.2100,9.5600,-0.0625,0.0000,-0.0625,0.0000,0.0000,0.0000,16382.0000,183.0000,-194.0000,0.0000,-0.1222
16752619,101284.570312,21.350000,3.366592,0.2200,0.1900,9.5800,0.1250,-0.0625,-0.0625,0.0000,0.0000,0.0000,16382.0000,183.0000,-194.0000,0.0000,-0.1650
16782227,101283.492188,21.350000,3.456565,0.2300,0.1900,9.5900,0.0000,0.0000,0.0625,0.0000,0.0000,0.0000,16382.0000,183.0000,-194.0000,0.0000,-0.2090
16811826,101283.492188,21.350000,3.456565,0.2200,0.1900,9.5700,0.0625,-0.2500,0.1250,0.0000,0.0000,0.0000,16382.0000,183.0000,-194.0000,0.0000,-0.2055
16851178,101280.648438,21.350000,3.693449,0.2300,0.2000,9.5500,-0.1875,0.0625,-0.0625,0.0000,0.0000,0.0000,16382.0000,183.0000,-194.0000,0.0000,-0.1739
16881649,101280.648438,21.350000,3.693449,0.2400,0.2000,9.5900,0.0000,0.0000,0.0625,0.0000,0.0000,0.0000,16382.0000,183.0000,-194.0000,0.0000,-0.1775
16911773,101281.718750,21.360001,3.603982,0.2200,0.2000,9.5700,0.0000,-0.2500,0.0000,0.0000,0.0000,0.0000,16382.0000,183.0000,-194.0000,0.0000,-0.0993
16941880,101281.343750,21.340000,3.635499,0.2300,0.2200,9.5900,0.0625,0.1875,0.0000,0.0000,0.0000,0.0000,16382.0000,183.0000,-194.0000,0.0000,-0.1437
16973304,101283.492188,21.350000,3.456565,0.2100,0.2100,9.5900,-0.1250,0.0625,0.0000,0.0000,0.0000,0.0000,16382.0000,183.0000,-194.0000,0.0000,-0.1663
17002845,101285.648438,21.360001,3.276619,0.2200,0.2100,9.5800,0.2500,0.0000,-0.0625,0.0000,0.0000,0.0000,16382.0000,183.0000,-194.0000,0.0000,-0.1253
17032453,101287.421875,21.350000,3.129207,0.2100,0.2000,9.5700,-0.0625,-0.0625,0.0625,0.0000,0.0000,0.0000,16382.0000,183.0000,-194.0000,0.0000,-0.0842
17063859,101278.500000,21.350000,3.872386,0.2200,0.2100,9.5800,0.1250,0.1875,0.0000,0.0000,0.0000,0.0000,16382.0000,183.0000,-194.0000,0.0000,-0.0449
17093448,101289.570312,21.360001,2.950283,0.2400,0.2100,9.6000,0.0000,0.0625,0.0000,0.0000,0.0000,0.0000,16382.0000,183.0000,-194.0000,0.0000,-0.0818
17123042,101276.726562,21.350000,4.019808,0.2200,0.2100,9.5800,0.0625,0.0000,0.0000,0.0000,0.0000,0.0000,16382.0000,183.0000,-194.0000,0.0000,-0.0285
17154440,101283.492188,21.350000,3.456565,0.2200,0.1900,9.6000,0.1250,0.1250,0.0000,0.0000,0.0000,0.0000,16382.0000,183.0000,-194.0000,0.0000,-0.0569
17183955,101281.718750,21.360001,3.603982,0.2200,0.2000,9.5800,0.1250,-0.3125,0.1250,0.0000,0.0000,0.0000,16382.0000,183.0000,-194.0000,0.0000,-0.0569
17213583,101289.570312,21.360001,2.950283,0.2200,0.2100,9.5500,0.0625,0.0000,0.1250,0.0000,0.0000,0.0000,16382.0000,183.0000,-194.0000,0.0000,-0.1300
17243156,101273.500000,21.340000,4.288732,0.2100,0.2100,9.5800,0.0625,-0.0625,0.0000,0.0000,0.0000,0.0000,16382.0000,183.0000,-194.0000,0.0000,-0.0682
17282438,101287.421875,21.350000,3.129207,0.2200,0.1900,9.5800,0.0000,0.0625,0.0625,0.0000,0.0000,0.0000,16382.0000,183.0000,-194.0000,0.0000,-0.0956
17312935,101281.718750,21.360001,3.603982,0.2200,0.2000,9.5800,0.0000,0.0000,0.0625,0.0000,0.0000,0.0000,16382.0000,183.0000,-194.0000,0.0000,-0.0539
17343010,101283.492188,21.350000,3.456565,0.2200,0.2100,9.5700,-0.0625,-0.0625,-0.0625,0.0000,0.0000,0.0000,16382.0000,183.0000,-194.0000,0.0000,-0.0176
17374415,101283.492188,21.350000,3.456565,0.2200,0.2000,9.5800,-0.0625,0.0000,-0.0625,0.0000,0.0000,0.0000,16382.0000,183.0000,-194.0000,0.0000,-0.0472
17404007,101289.570312,21.360001,2.950283,0.2300,0.1900,9.5900,-0.0625,-0.0625,0.0625,0.0000,0.0000,0.0000,16382.0000,183.0000,-194.0000,0.0000,-0.0270
17433613,101286.343750,21.350000,3.218671,0.2200,0.2000,9.5900,-0.0625,-0.1250,-0.0625,0.0000,0.0000,0.0000,16382.0000,183.0000,-194.0000,0.0000,-0.1071
17463477,101279.570312,21.350000,3.782917,0.2200,0.2000,9.5900,0.0625,0.0625,0.0625,0.0000,0.0000,0.0000,16382.0000,183.0000,-194.0000,0.0000,-0.0941
17503563,101285.648438,21.360001,3.276619,0.2300,0.2100,9.5400,0.0000,-0.1250,0.0000,0.0000,0.0000,0.0000,16382.0000,183.0000,-194.0000,0.0000,-0.1167
17553317,101279.570312,21.350000,3.782917,0.2200,0.2000,9.5800,0.0000,-0.0625,0.0625,0.0000,0.0000,0.0000,16382.0000,183.0000,-194.0000,0.0000,-0.0429
17583808,101276.726562,21.350000,4.019808,0.2300,0.2000,9.5700,0.0000,-0.1250,0.0625,0.0000,0.0000,0.0000,16382.0000,183.0000,-194.0000,0.0000,-0.0811
17615187,101280.648438,21.350000,3.693449,0.2200,0.1900,9.6100,-0.1875,-0.0625,-0.0625,0.0000,0.0000,0.0000,16382.0000,183.0000,-194.0000,0.0000,-0.0294
17644734,101285.648438,21.360001,3.276619,0.2200,0.2100,9.5700,-0.0625,-0.0625,0.0625,0.0000,0.0000,0.0000,16382.0000,183.0000,-194.0000,0.0000,-0.0354
17674272,101280.648438,21.350000,3.693449,0.2100,0.2100,9.6000,-0.0625,0.0000,-0.0625,0.0000,0.0000,0.0000,16382.0000,183.0000,-194.0000,0.0000,-0.0045
17713763,101279.570312,21.350000,3.782917,0.2300,0.1900,9.5900,-0.1250,0.0000,0.0625,0.0000,0.0000,0.0000,16382.0000,183.0000,-194.0000,0.0000,0.0317
17744244,101283.492188,21.350000,3.456565,0.2200,0.2000,9.6000,0.0000,-0.0625,0.0000,0.0000,0.0000,0.0000,16382.0000,183.0000,-194.0000,0.0000,0.0591
17774391,101279.570312,21.350000,3.782917,0.2200,0.1900,9.6000,0.0000,-0.1250,0.0625,0.0000,0.0000,0.0000,16382.0000,183.0000,-194.0000,0.0000,0.1221
17804461,101281.718750,21.360001,3.603982,0.2200,0.1900,9.5500,-0.0625,0.1250,0.0000,0.0000,0.0000,0.0000,16382.0000,183.0000,-194.0000,0.0000,0.0852
17835807,101279.570312,21.350000,3.782917,0.2200,0.2000,9.5600,0.0625,-0.0625,0.0625,0.0000,0.0000,0.0000,16382.0000,183.0000,-194.0000,0.0000,0.1460
17865381,101279.570312,21.350000,3.782917,0.2100,0.2000,9.5900,0.0625,-0.1250,0.0000,0.0000,0.0000,0.0000,16382.0000,183.0000,-194.0000,0.0000,0.1478
17894970,101274.578125,21.350000,4.198751,0.2200,0.2000,9.5700,0.0000,-0.0625,0.0000,0.0000,0.0000,0.0000,16382.0000,183.0000,-194.0000,0.0000,0.1478
17926358,101280.648438,21.350000,3.693449,0.2100,0.2100,9.5800,0.0625,0.0000,0.0000,0.0000,0.0000,0.0000,16382.0000,183.0000,-194.0000,0.0000,0.1485
17955935,101281.718750,21.360001,3.603982,0.2300,0.1900,9.5800,0.0000,-0.1250,0.0625,0.0000,0.0000,0.0000,16382.0000,183.0000,-194.0000,0.0000,0.1848
17985540,101277.796875,21.360001,3.930846,0.2100,0.2000,9.6000,0.0625,-0.0625,0.0625,0.0000,0.0000,0.0000,16382.0000,183.0000,-194.0000,0.0000,0.2038
18015191,101284.570312,21.350000,3.366592,0.2200,0.2000,9.5800,0.0625,-0.0625,0.0625,0.0000,0.0000,0.0000,16382.0000,183.0000,-194.0000,0.0000,0.1705
18046540,101272.812500,21.350000,4.345669,0.2200,0.2100,9.5800,0.1250,-0.0625,0.0000,0.0000,0.0000,0.0000,16382.0000,183.0000,-194.0000,0.0000,0.2517
18076136,101277.796875,21.360001,3.930846,0.2200,0.2000,9.5900,0.1250,0.0625,-0.1875,0.0000,0.0000,0.0000,16382.0000,183.0000,-194.0000,0.0000,0.2570
18105713,101284.570312,21.350000,3.366592,0.2500,0.2000,9.5800,0.1250,0.0000,-0.0625,0.0000,0.0000,0.0000,16382.0000,183.0000,-194.0000,0.0000,0.2333
18145087,101284.570312,21.350000,3.366592,0.2200,0.2000,9.5600,0.1250,-0.0625,0.0625,0.0000,0.0000,0.0000,16382.0000,183.0000,-194.0000,0.0000,0.2000
18175565,101280.648438,21.350000,3.693449,0.2200,0.2000,9.5600,0.1250,-0.1250,-0.0625,0.0000,0.0000,0.0000,16382.0000,183.0000,-194.0000,0.0000,0.1750
18205721,101289.570312,21.360001,2.950283,0.2400,0.2000,9.5600,0.0625,0.0625,0.0000,0.0000,0.0000,0.0000,16382.0000,183.0000,-194.0000,0.0000,0.0733
18237092,101288.492188,21.350000,3.039745,0.2200,0.2100,9.5600,0.1250,0.0625,-0.0625,0.0000,0.0000,0.0000,16382.0000,183.0000,-194.0000,0.0000,0.0228
18266601,101283.492188,21.350000,3.456565,0.2400,0.2100,9.5600,-0.0625,0.1875,-0.1250,0.0000,0.0000,0.0000,16382.0000,183.0000,-194.0000,0.0000,-0.0020
18296197,101281.718750,21.360001,3.603982,0.2200,0.2000,9.5900,0.0000,0.0625,0.0000,0.0000,0.0000,0.0000,16382.0000,183.0000,-194.0000,0.0000,-0.0478
18326094,101280.648438,21.350000,3.693449,0.2300,0.2000,9.5800,0.0000,0.1875,0.0000,0.0000,0.0000,0.0000,16382.0000,183.0000,-194.0000,0.0000,-0.0216
18357451,101287.421875,21.350000,3.129207,0.2200,0.2100,9.6000,-0.0625,0.0625,0.1250,0.0000,0.0000,0.0000,16382.0000,183.0000,-194.0000,0.0000,-0.1367
18387064,101280.648438,21.350000,3.693449,0.2300,0.2000,9.5900,0.0000,0.0000,-0.0625,0.0000,0.0000,0.0000,16382.0000,183.0000,-194.0000,0.0000,-0.1652
18416668,101281.718750,21.360001,3.603982,0.2100,0.2000,9.5900,-0.0625,0.0000,-0.0625,0.0000,0.0000,0.0000,16382.0000,183.0000,-194.0000,0.0000,-0.1397
18458330,101278.500000,21.350000,3.872386,0.2200,0.1900,9.5800,-0.1250,0.0000,0.0625,0.0000,0.0000,0.0000,16382.0000,183.0000,-194.0000,0.0000,-0.0927
18488048,101281.718750,21.360001,3.603982,0.2300,0.2000,9.6000,0.0000,0.0625,0.0000,0.0000,0.0000,0.0000,16382.0000,183.0000,-194.0000,0.0000,-0.1016
18517658,101277.796875,21.360001,3.930846,0.2100,0.2000,9.6000,0.1250,-0.0625,-0.0625,0.0000,0.0000,0.0000,16382.0000,183.0000,-194.0000,0.0000,-0.0095
18547231,101294.562500,21.360001,2.534499,0.2200,0.2200,9.6200,-0.1250,0.1250,0.0000,0.0000,0.0000,0.0000,16382.0000,183.0000,-194.0000,0.0000,-0.0416
18586505,101276.726562,21.350000,4.019808,0.2200,0.2000,9.6000,-0.1250,-0.0625,0.0000,0.0000,0.0000,0.0000,16382.0000,183.0000,-194.0000,0.0000,-0.0001
18616902,101285.648438,21.360001,3.276619,0.2000,0.2000,9.5700,-0.0625,0.0000,-0.1250,0.0000,0.0000,0.0000,16382.0000,183.0000,-194.0000,0.0000,-0.0358
18647058,101285.648438,21.360001,3.276619,0.2200,0.1900,9.5600,0.0625,-0.2500,0.0625,0.0000,0.0000,0.0000,16382.0000,183.0000,-194.0000,0.0000,-0.0656
18707280,101273.882812,21.360001,4.256704,0.2300,0.2000,9.5800,-0.0625,-0.1250,-0.1875,0.0000,0.0000,0.0000,16382.0000,183.0000,-194.0000,0.0000,0.0211
18737375,101281.718750,21.360001,3.603982,0.2100,0.2100,9.5900,0.0000,0.1250,0.0000,0.0000,0.0000,0.0000,16382.0000,183.0000,-194.0000,0.0000,0.0204
18767305,101279.570312,21.350000,3.782917,0.2200,0.2000,9.5900,-0.0625,0.0000,0.0000,0.0000,0.0000,0.0000,16382.0000,183.0000,-194.0000,0.0000,0.0318
18798659,101274.578125,21.350000,4.198751,0.2200,0.2000,9.5700,-0.1250,0.3125,-0.0625,0.0000,0.0000,0.0000,16382.0000,183.0000,-194.0000,0.0000,0.0525
18828335,101280.648438,21.350000,3.693449,0.2200,0.2000,9.5900,0.0625,-0.0625,-0.0625,0.0000,0.0000,0.0000,16382.0000,183.0000,-194.0000,0.0000,0.0466
18857857,101273.882812,21.360001,4.256704,0.2200,0.2000,9.6000,0.0000,-0.1250,0.1250,0.0000,0.0000,0.0000,16382.0000,183.0000,-194.0000,0.0000,0.0798
18887752,101276.726562,21.350000,4.019808,0.2200,0.2100,9.5600,0.0000,0.0625,0.0000,0.0000,0.0000,0.0000,16382.0000,183.0000,-194.0000,0.0000,0.2106
18919181,101281.718750,21.360001,3.603982,0.2200,0.1900,9.5800,0.0000,0.0625,0.0000,0.0000,0.0000,0.0000,16382.0000,183.0000,-194.0000,0.0000,0.1690
18948720,101285.648438,21.360001,3.276619,0.1900,0.1900,9.5800,0.0625,0.0000,-0.0625,0.0000,0.0000,0.0000,16382.0000,183.0000,-194.0000,0.0000,0.1726
18978317,101279.570312,21.350000,3.782917,0.2200,0.2100,9.5700,0.0625,0.1875,0.0625,0.0000,0.0000,0.0000,16382.0000,183.0000,-194.0000,0.0000,0.2167
19017676,101281.718750,21.360001,3.603982,0.2200,0.2000,9.5700,0.0000,0.0000,-0.0625,0.0000,0.0000,0.0000,16382.0000,183.0000,-194.0000,0.0000,0.1383
19048153,101286.718750,21.360001,3.187663,0.2200,0.2000,9.5800,-0.0625,-0.1250,0.0625,0.0000,0.0000,0.0000,16382.0000,183.0000,-194.0000,0.0000,0.0973
19078255,101283.867188,21.370001,3.425049,0.2300,0.2000,9.5700,-0.1250,-0.0625,0.1250,0.0000,0.0000,0.0000,16382.0000,183.0000,-194.0000,0.0000,0.0687
19108362,101277.796875,21.360001,3.930846,0.2200,0.2100,9.6000,-0.0625,0.0625,-0.1250,0.0000,0.0000,0.0000,16382.0000,183.0000,-194.0000,0.0000,0.0288
19139788,101281.718750,21.360001,3.603982,0.2200,0.2000,9.5700,0.0625,-0.0625,0.0000,0.0000,0.0000,0.0000,16382.0000,183.0000,-194.0000,0.0000,0.0235
19169334,101281.718750,21.360001,3.603982,0.2200,0.2000,9.5700,0.0000,-0.0625,0.0000,0.0000,0.0000,0.0000,16382.0000,183.0000,-194.0000,0.0000,-0.0335
19198961,101281.718750,21.360001,3.603982,0.2300,0.2100,9.5800,0.0625,0.1875,-0.1250,0.0000,0.0000,0.0000,16382.0000,183.0000,-194.0000,0.0000,-0.0733
19230331,101271.726562,21.350000,4.436160,0.2200,0.2100,9.5800,-0.0625,-0.0625,0.0000,0.0000,0.0000,0.0000,16382.0000,183.0000,-194.0000,0.0000,-0.0133
19259860,101280.648438,21.350000,3.693449,0.2200,0.2000,9.6000,-0.0625,-0.0625,0.0000,0.0000,0.0000,0.0000,16382.0000,183.0000,-194.0000,0.0000,0.0284
19289457,101277.796875,21.360001,3.930846,0.2200,0.2000,9.5700,-0.1250,0.0000,0.0000,0.0000,0.0000,0.0000,16382.0000,183.0000,-194.0000,0.0000,0.0402
19320784,101277.421875,21.340000,3.961856,0.2200,0.2100,9.5900,-0.0625,0.1875,-0.0625,0.0000,0.0000,0.0000,16382.0000,183.0000,-194.0000,0.0000,0.0659
19350392,101281.718750,21.360001,3.603982,0.2200,0.2200,9.5800,-0.0625,-0.0625,-0.0625,0.0000,0.0000,0.0000,16382.0000,183.0000,-194.0000,0.0000,0.1111
19379966,101280.648438,21.350000,3.693449,0.2200,0.1900,9.5600,0.0000,0.0625,-0.0625,0.0000,0.0000,0.0000,16382.0000,183.0000,-194.0000,0.0000,0.1362
19409578,101286.718750,21.360001,3.187663,0.2200,0.1800,9.5800,0.0000,-0.0625,-0.0625,0.0000,0.0000,0.0000,16382.0000,183.0000,-194.0000,0.0000,0.0738
19448917,101282.796875,21.360001,3.514515,0.2300,0.2000,9.5800,0.1250,0.0000,0.0000,0.0000,0.0000,0.0000,16382.0000,183.0000,-194.0000,0.0000,0.0702
19479420,101289.570312,21.360001,2.950283,0.2200,0.2100,9.5900,0.0625,0.2500,-0.1250,0.0000,0.0000,0.0000,16382.0000,183.0000,-194.0000,0.0000,0.0298
19509571,101285.648438,21.360001,3.276619,0.2200,0.1900,9.5800,0.0000,0.0625,0.0000,0.0000,0.0000,0.0000,16382.0000,183.0000,-194.0000,0.0000,0.0054
19540907,101280.648438,21.350000,3.693449,0.2100,0.1900,9.6000,-0.0625,0.0000,-0.0625,0.0000,0.0000,0.0000,16382.0000,183.0000,-194.0000,0.0000,-0.0707
19570496,101280.648438,21.350000,3.693449,0.2200,0.2000,9.5900,0.0000,0.0625,0.0625,0.0000,0.0000,0.0000,16382.0000,183.0000,-194.0000,0.0000,-0.0659
19600145,101287.796875,21.370001,3.097692,0.2200,0.2000,9.6000,0.0625,-0.1250,0.0625,0.0000,0.0000,0.0000,16382.0000,183.0000,-194.0000,0.0000,-0.1439
19629958,101288.492188,21.350000,3.039745,0.2300,0.1900,9.5700,-0.0625,0.0000,0.0625,0.0000,0.0000,0.0000,16382.0000,183.0000,-194.0000,0.0000,-0.2099
19661366,101279.953125,21.370001,3.750891,0.2200,0.1900,9.5700,0.0625,-0.1250,0.0000,0.0000,0.0000,0.0000,16382.0000,183.0000,-194.0000,0.0000,-0.1917
19690911,101281.718750,21.360001,3.603982,0.2200,0.2000,9.6000,0.0000,0.0000,-0.0625,0.0000,0.0000,0.0000,16382.0000,183.0000,-194.0000,0.0000,-0.2053
19720510,101281.718750,21.360001,3.603982,0.2200,0.2200,9.5800,0.0625,0.0000,0.0000,0.0000,0.0000,0.0000,16382.0000,183.0000,-194.0000,0.0000,-0.1685
19751864,101277.796875,21.360001,3.930846,0.2300,0.2000,9.5700,-0.0625,-0.0625,-0.0625,0.0000,0.0000,0.0000,16382.0000,183.0000,-194.0000,0.0000,-0.1316
19781496,101286.718750,21.360001,3.187663,0.2000,0.2000,9.5800,-0.0625,-0.0625,0.0625,0.0000,0.0000,0.0000,16382.0000,183.0000,-194.0000,0.0000,-0.1126
19811048,101281.718750,21.360001,3.603982,0.2200,0.2200,9.6100,0.0000,0.0625,0.0000,0.0000,0.0000,0.0000,16382.0000,183.0000,-194.0000,0.0000,-0.0911
19850249,101285.648438,21.360001,3.276619,0.2200,0.1900,9.5700,0.0000,-0.1875,0.0000,0.0000,0.0000,0.0000,16382.0000,183.0000,-194.0000,0.0000,-0.1292
19880539,101280.648438,21.350000,3.693449,0.2200,0.2100,9.5700,0.0000,0.0625,0.0000,0.0000,0.0000,0.0000,16382.0000,183.0000,-194.0000,0.0000,-0.1310
19910658,101279.570312,21.350000,3.782917,0.2100,0.2100,9.5700,0.0000,-0.1250,0.1250,0.0000,0.0000,0.0000,16382.0000,183.0000,-194.0000,0.0000,-0.0643
19940795,101281.718750,21.360001,3.603982,0.2200,0.2100,9.6000,0.0625,-0.1250,0.0000,0.0000,0.0000,0.0000,16382.0000,183.0000,-194.0000,0.0000,-0.0173
19972171,101289.570312,21.360001,2.950283,0.2200,0.2000,9.5900,0.0000,0.1250,-0.0625,0.0000,0.0000,0.0000,16382.0000,183.0000,-194.0000,0.0000,-0.0825
20001822,101281.718750,21.360001,3.603982,0.2200,0.2000,9.5900,-0.1250,0.2500,0.0000,0.0000,0.0000,0.0000,16382.0000,183.0000,-194.0000,0.0000,-0.0825
20031397,101280.648438,21.350000,3.693449,0.2200,0.1900,9.5800,-0.1250,0.0625,-0.0625,0.0000,0.0000,0.0000,16382.0000,183.0000,-194.0000,0.0000,-0.0700
20062755,101283.492188,21.350000,3.456565,0.2300,0.2000,9.5800,-0.1250,0.0000,-0.0625,0.0000,0.0000,0.0000,16382.0000,183.0000,-194.0000,0.0000,-0.1145
20092311,101287.421875,21.350000,3.129207,0.2300,0.2000,9.5700,0.0000,-0.0625,0.0625,0.0000,0.0000,0.0000,16382.0000,183.0000,-194.0000,0.0000,-0.1043
20121900,101276.726562,21.350000,4.019808,0.2300,0.2100,9.6000,-0.0625,0.1875,-0.0625,0.0000,0.0000,0.0000,16382.0000,183.0000,-194.0000,0.0000,-0.0924
20151542,101280.648438,21.350000,3.693449,0.2100,0.2000,9.5800,0.0000,0.1250,-0.0625,0.0000,0.0000,0.0000,16382.0000,183.0000,-194.0000,0.0000,-0.0442
20181565,101285.648438,21.360001,3.276619,0.2200,0.2100,9.5800,-0.0625,0.0000,-0.0625,0.0000,0.0000,0.0000,16382.0000,183.0000,-194.0000,0.0000,-0.0859
20211726,101284.570312,21.350000,3.366592,0.2200,0.2100,9.5700,-0.1250,0.1250,0.0000,0.0000,0.0000,0.0000,16382.0000,183.0000,-194.0000,0.0000,-0.1293
20241816,101288.492188,21.350000,3.039745,0.2100,0.1900,9.5800,-0.1250,-0.1250,0.0000,0.0000,0.0000,0.0000,16382.0000,183.0000,-194.0000,0.0000,-0.1614
20281372,101282.796875,21.360001,3.514515,0.2200,0.2100,9.5800,0.0000,0.1875,0.0000,0.0000,0.0000,0.0000,16382.0000,183.0000,-194.0000,0.0000,-0.1032
20311853,101280.648438,21.350000,3.693449,0.2000,0.2000,9.5800,-0.1250,0.0000,0.0625,0.0000,0.0000,0.0000,16382.0000,183.0000,-194.0000,0.0000,-0.0925
20342066,101273.882812,21.360001,4.256704,0.2400,0.1900,9.5800,0.0000,0.0000,-0.1250,0.0000,0.0000,0.0000,16382.0000,183.0000,-194.0000,0.0000,-0.0373
20373448,101281.718750,21.360001,3.603982,0.2100,0.2000,9.5700,-0.0625,0.0625,-0.0625,0.0000,0.0000,0.0000,16382.0000,183.0000,-194.0000,0.0000,-0.0208
20403075,101281.718750,21.360001,3.603982,0.2200,0.2100,9.5900,0.0000,0.0625,-0.0625,0.0000,0.0000,0.0000,16382.0000,183.0000,-194.0000,0.0000,0.0398
20432629,101281.718750,21.360001,3.603982,0.2100,0.2000,9.6000,0.0625,-0.0625,0.0000,0.0000,0.0000,0.0000,16382.0000,183.0000,-194.0000,0.0000,0.0065
20462526,101278.500000,21.350000,3.872386,0.2300,0.1900,9.5800,-0.0625,0.0625,-0.1250,0.0000,0.0000,0.0000,16382.0000,183.0000,-194.0000,0.0000,0.0190
20493869,101281.718750,21.360001,3.603982,0.2100,0.2000,9.6000,0.0000,-0.0625,0.0000,0.0000,0.0000,0.0000,16382.0000,183.0000,-194.0000,0.0000,0.0452
20523529,101281.718750,21.360001,3.603982,0.2100,0.2200,9.6000,-0.0625,-0.0625,0.0000,0.0000,0.0000,0.0000,16382.0000,183.0000,-194.0000,0.0000,0.0725
20553107,101281.718750,21.360001,3.603982,0.2200,0.1900,9.6000,-0.0625,0.0000,-0.1250,0.0000,0.0000,0.0000,16382.0000,183.0000,-194.0000,0.0000,0.1289
20584481,101281.718750,21.360001,3.603982,0.2200,0.2000,9.5700,0.0000,-0.0625,0.1250,0.0000,0.0000,0.0000,16382.0000,183.0000,-194.0000,0.0000,0.1296
20614026,101281.718750,21.360001,3.603982,0.2000,0.1900,9.5700,0.0625,0.0625,0.0000,0.0000,0.0000,0.0000,16382.0000,183.0000,-194.0000,0.0000,0.1170
20643631,101282.796875,21.360001,3.514515,0.2200,0.2100,9.5700,-0.1250,0.0625,-0.0625,0.0000,0.0000,0.0000,16382.0000,183.0000,-194.0000,0.0000,0.0511
20682748,101280.648438,21.350000,3.693449,0.2200,0.2000,9.5800,0.0000,0.0000,-0.0625,0.0000,0.0000,0.0000,16382.0000,183.0000,-194.0000,0.0000,0.0583
20713209,101293.492188,21.360001,2.623449,0.2200,0.2000,9.5600,-0.0625,0.0000,-0.0625,0.0000,0.0000,0.0000,16382.0000,183.0000,-194.0000,0.0000,-0.0201
20752934,101276.726562,21.350000,4.019808,0.2500,0.2000,9.5700,-0.1250,-0.0625,0.0625,0.0000,0.0000,0.0000,16382.0000,183.0000,-194.0000,0.0000,0.0131
20802975,101281.718750,21.360001,3.603982,0.2200,0.2100,9.6100,-0.0625,0.0625,-0.0625,0.0000,0.0000,0.0000,16382.0000,183.0000,-194.0000,0.0000,0.0029
20834968,101285.648438,21.360001,3.276619,0.2200,0.2000,9.5900,-0.1250,0.1250,0.0000,0.0000,0.0000,0.0000,16382.0000,183.0000,-194.0000,0.0000,-0.0215
20864576,101273.882812,21.360001,4.256704,0.1900,0.2200,9.5700,-0.0625,0.0000,0.0625,0.0000,0.0000,0.0000,16382.0000,183.0000,-194.0000,0.0000,0.0373
20894172,101281.718750,21.360001,3.603982,0.2200,0.2000,9.5700,-0.0625,0.1875,-0.1250,0.0000,0.0000,0.0000,16382.0000,183.0000,-194.0000,0.0000,0.0444
20925565,101286.718750,21.360001,3.187663,0.2400,0.2000,9.5500,-0.0625,0.0625,0.0625,0.0000,0.0000,0.0000,16382.0000,183.0000,-194.0000,0.0000,0.0111
20955137,101281.718750,21.360001,3.603982,0.2200,0.2000,9.5900,0.0000,-0.1875,0.0000,0.0000,0.0000,0.0000,16382.0000,183.0000,-194.0000,0.0000,0.0129
20984759,101281.718750,21.360001,3.603982,0.2200,0.2100,9.5500,0.0000,0.1250,0.1250,0.0000,0.0000,0.0000,16382.0000,183.0000,-194.0000,0.0000,0.0135
21014299,101276.726562,21.350000,4.019808,0.2200,0.2100,9.5800,0.0000,0.0000,-0.1250,0.0000,0.0000,0.0000,16382.0000,183.0000,-194.0000,0.0000,0.0361
21045659,101281.718750,21.360001,3.603982,0.2400,0.2000,9.5700,-0.0625,-0.1250,0.0000,0.0000,0.0000,0.0000,16382.0000,183.0000,-194.0000,0.0000,0.1211
21075292,101273.882812,21.360001,4.256704,0.2400,0.2000,9.6000,0.0000,-0.1875,0.0000,0.0000,0.0000,0.0000,16382.0000,183.0000,-194.0000,0.0000,0.1251
21104825,101272.109375,21.370001,4.404640,0.2100,0.2000,9.5800,0.0000,-0.1250,0.0000,0.0000,0.0000,0.0000,16382.0000,183.0000,-194.0000,0.0000,0.1910
21144017,101280.648438,21.350000,3.693449,0.2100,0.2100,9.5800,-0.1250,0.1250,-0.1250,0.0000,0.0000,0.0000,16382.0000,183.0000,-194.0000,0.0000,0.2327
21174463,101282.796875,21.360001,3.514515,0.2400,0.2000,9.6100,0.0000,-0.0625,0.0000,0.0000,0.0000,0.0000,16382.0000,183.0000,-194.0000,0.0000,0.1501
21204681,101282.796875,21.360001,3.514515,0.2100,0.2000,9.5900,0.0000,-0.0625,0.0625,0.0000,0.0000,0.0000,16382.0000,183.0000,-194.0000,0.0000,0.1317
21234816,101282.796875,21.360001,3.514515,0.2300,0.2000,9.5700,0.0000,0.0000,-0.0625,0.0000,0.0000,0.0000,16382.0000,183.0000,-194.0000,0.0000,0.1691
21264860,101285.648438,21.360001,3.276619,0.2400,0.2000,9.5800,0.0625,-0.1250,0.0625,0.0000,0.0000,0.0000,16382.0000,183.0000,-194.0000,0.0000,0.1429
21295001,101277.109375,21.370001,3.987782,0.2300,0.2200,9.5800,-0.0625,0.1875,0.0000,0.0000,0.0000,0.0000,16382.0000,183.0000,-194.0000,0.0000,0.1736
21325112,101281.718750,21.360001,3.603982,0.2100,0.2100,9.5900,0.0000,0.0625,0.0625,0.0000,0.0000,0.0000,16382.0000,183.0000,-194.0000,0.0000,0.1386
21356482,101281.718750,21.360001,3.603982,0.2200,0.2100,9.6100,-0.0625,0.1875,-0.1250,0.0000,0.0000,0.0000,16382.0000,183.0000,-194.0000,0.0000,0.1302
21386073,101281.718750,21.360001,3.603982,0.2200,0.1900,9.5700,-0.0625,-0.1250,0.0625,0.0000,0.0000,0.0000,16382.0000,183.0000,-194.0000,0.0000,0.0650
21415681,101282.796875,21.360001,3.514515,0.2100,0.2100,9.5800,-0.0625,0.0000,-0.0625,0.0000,0.0000,0.0000,16382.0000,183.0000,-194.0000,0.0000,-0.0288
21447067,101283.867188,21.370001,3.425049,0.2000,0.2000,9.5800,-0.0625,-0.1250,0.0625,0.0000,0.0000,0.0000,16382.0000,183.0000,-194.0000,0.0000,-0.0503
21476685,101282.796875,21.360001,3.514515,0.2200,0.1900,9.5500,-0.1250,0.1250,-0.0625,0.0000,0.0000,0.0000,16382.0000,183.0000,-194.0000,0.0000,-0.0449
21506270,101282.796875,21.360001,3.514515,0.2300,0.2000,9.5800,-0.0625,-0.0625,0.0000,0.0000,0.0000,0.0000,16382.0000,183.0000,-194.0000,0.0000,-0.0431
21535920,101285.648438,21.360001,3.276619,0.2300,0.1900,9.6000,0.0000,-0.0625,0.0625,0.0000,0.0000,0.0000,16382.0000,183.0000,-194.0000,0.0000,-0.0734
21575451,101277.796875,21.360001,3.930846,0.2400,0.2000,9.5400,0.0000,-0.0625,0.0000,0.0000,0.0000,0.0000,16382.0000,183.0000,-194.0000,0.0000,-0.0146
21605862,101282.796875,21.360001,3.514515,0.2200,0.1900,9.6000,0.1250,0.0625,-0.1250,0.0000,0.0000,0.0000,16382.0000,183.0000,-194.0000,0.0000,-0.0583
21635976,101286.718750,21.360001,3.187663,0.2200,0.1800,9.5900,-0.0625,0.1875,0.0000,0.0000,0.0000,0.0000,16382.0000,183.0000,-194.0000,0.0000,-0.0946
21667364,101274.960938,21.360001,4.166724,0.2100,0.2000,9.5800,-0.0625,0.1875,0.0000,0.0000,0.0000,0.0000,16382.0000,183.0000,-194.0000,0.0000,-0.0590
21696949,101278.882812,21.360001,3.840360,0.2100,0.2000,9.5900,-0.0625,-0.1250,0.0000,0.0000,0.0000,0.0000,16382.0000,183.0000,-194.0000,0.0000,-0.0318
21726598,101283.867188,21.370001,3.425049,0.2400,0.2000,9.5700,0.0625,0.1250,0.0000,0.0000,0.0000,0.0000,16382.0000,183.0000,-194.0000,0.0000,-0.0354
21757922,101277.796875,21.360001,3.930846,0.2200,0.2000,9.5600,0.0000,0.0000,0.0625,0.0000,0.0000,0.0000,16382.0000,183.0000,-194.0000,0.0000,0.0021
21796340,101279.570312,21.350000,3.782917,0.2200,0.2000,9.6000,-0.0625,-0.0625,0.0000,0.0000,0.0000,0.0000,16382.0000,183.0000,-194.0000,0.0000,0.0206
21855824,101282.796875,21.360001,3.514515,0.2100,0.2000,9.5900,0.0000,0.0000,-0.0625,0.0000,0.0000,0.0000,16382.0000,183.0000,-194.0000,0.0000,0.0111
21886645,101279.953125,21.370001,3.750891,0.2200,0.2100,9.5500,0.1250,0.0000,0.0625,0.0000,0.0000,0.0000,16382.0000,183.0000,-194.0000,0.0000,0.0538
21923425,101281.718750,21.360001,3.603982,0.2200,0.2000,9.5800,-0.0625,0.0625,0.0000,0.0000,0.0000,0.0000,16382.0000,183.0000,-194.0000,0.0000,0.0229
21956505,101281.718750,21.360001,3.603982,0.2100,0.2100,9.5800,-0.0625,0.1250,0.0000,0.0000,0.0000,0.0000,16382.0000,183.0000,-194.0000,0.0000,0.0449
21986992,101269.960938,21.360001,4.583590,0.2300,0.2100,9.5900,-0.1875,0.0625,-0.0625,0.0000,0.0000,0.0000,16382.0000,183.0000,-194.0000,0.0000,0.1649
22026770,101289.570312,21.360001,2.950283,0.2000,0.1900,9.5900,0.0625,-0.0625,-0.0625,0.0000,0.0000,0.0000,16382.0000,183.0000,-194.0000,0.0000,0.0564
22057308,101284.953125,21.370001,3.334568,0.2100,0.1900,9.5800,-0.0625,-0.0625,0.0000,0.0000,0.0000,0.0000,16382.0000,183.0000,-194.0000,0.0000,0.0112
22087442,101291.718750,21.370001,2.771362,0.2000,0.2000,9.5600,-0.0625,0.0625,0.0625,0.0000,0.0000,0.0000,16382.0000,183.0000,-194.0000,0.0000,-0.0322
22117396,101276.031250,21.370001,4.077761,0.2100,0.2000,9.5900,0.1250,-0.1250,0.0000,0.0000,0.0000,0.0000,16382.0000,183.0000,-194.0000,0.0000,-0.0270
22148774,101283.867188,21.370001,3.425049,0.2200,0.2100,9.5800,-0.0625,-0.1250,0.1250,0.0000,0.0000,0.0000,16382.0000,183.0000,-194.0000,0.0000,-0.0592
22178380,101273.882812,21.360001,4.256704,0.2200,0.1900,9.5700,-0.1250,0.1250,0.0000,0.0000,0.0000,0.0000,16382.0000,183.0000,-194.0000,0.0000,0.0020
22207975,101281.718750,21.360001,3.603982,0.2200,0.2100,9.5700,0.0625,-0.1250,0.0000,0.0000,0.0000,0.0000,16382.0000,183.0000,-194.0000,0.0000,-0.0127
22239377,101276.031250,21.370001,4.077761,0.2200,0.2000,9.5900,-0.0625,0.1875,-0.0625,0.0000,0.0000,0.0000,16382.0000,183.0000,-194.0000,0.0000,0.0252
22268920,101284.953125,21.370001,3.334568,0.2400,0.2000,9.5900,0.0625,-0.0625,-0.0625,0.0000,0.0000,0.0000,16382.0000,183.0000,-194.0000,0.0000,0.0019
22298508,101273.882812,21.360001,4.256704,0.2300,0.2000,9.5700,-0.0625,0.1875,0.0000,0.0000,0.0000,0.0000,16382.0000,183.0000,-194.0000,0.0000,-0.0421
22329901,101289.570312,21.360001,2.950283,0.2300,0.2000,9.5900,-0.0625,0.0625,0.0625,0.0000,0.0000,0.0000,16382.0000,183.0000,-194.0000,0.0000,-0.0486
22359502,101289.570312,21.360001,2.950283,0.2200,0.1900,9.5900,-0.1250,0.0625,0.0000,0.0000,0.0000,0.0000,16382.0000,183.0000,-194.0000,0.0000,-0.0657
22389125,101279.953125,21.370001,3.750891,0.2100,0.2000,9.5800,0.0625,0.0625,0.0625,0.0000,0.0000,0.0000,16382.0000,183.0000,-194.0000,0.0000,0.0293
22418688,101283.867188,21.370001,3.425049,0.2100,0.2100,9.5700,-0.0625,0.1875,0.0625,0.0000,0.0000,0.0000,16382.0000,183.0000,-194.0000,0.0000,-0.0389
22458038,101281.718750,21.360001,3.603982,0.2400,0.2000,9.5800,-0.1875,0.1250,-0.0625,0.0000,0.0000,0.0000,16382.0000,183.0000,-194.0000,0.0000,-0.0079
22488502,101281.718750,21.360001,3.603982,0.2300,0.1900,9.5900,0.0000,-0.0625,0.0000,0.0000,0.0000,0.0000,16382.0000,183.0000,-194.0000,0.0000,-0.0732
22518607,101288.867188,21.370001,3.008738,0.2300,0.2200,9.5700,0.0000,0.0625,-0.0625,0.0000,0.0000,0.0000,16382.0000,183.0000,-194.0000,0.0000,-0.1292
22550008,101284.953125,21.370001,3.334568,0.2200,0.2100,9.5700,-0.0625,-0.1250,0.0000,0.0000,0.0000,0.0000,16382.0000,183.0000,-194.0000,0.0000,-0.1981
22579666,101279.953125,21.370001,3.750891,0.2300,0.2000,9.5600,0.0000,0.0000,0.0625,0.0000,0.0000,0.0000,16382.0000,183.0000,-194.0000,0.0000,-0.1594
22609210,101283.867188,21.370001,3.425049,0.2300,0.2000,9.5800,-0.0625,-0.0625,0.0000,0.0000,0.0000,0.0000,16382.0000,183.0000,-194.0000,0.0000,-0.2307
22639061,101282.796875,21.360001,3.514515,0.2400,0.1900,9.6100,0.0000,-0.0625,0.1250,0.0000,0.0000,0.0000,16382.0000,183.0000,-194.0000,0.0000,-0.1725
22670489,101278.882812,21.360001,3.840360,0.2200,0.2100,9.5600,0.0000,-0.0625,0.0625,0.0000,0.0000,0.0000,16382.0000,183.0000,-194.0000,0.0000,-0.0751
22700065,101283.867188,21.370001,3.425049,0.2200,0.2200,9.5800,0.0000,0.1250,0.0000,0.0000,0.0000,0.0000,16382.0000,183.0000,-194.0000,0.0000,-0.0881
22729631,101283.867188,21.370001,3.425049,0.2100,0.2100,9.5600,-0.0625,0.0000,0.0000,0.0000,0.0000,0.0000,16382.0000,183.0000,-194.0000,0.0000,-0.0827
22760993,101283.867188,21.370001,3.425049,0.2200,0.1900,9.5700,-0.0625,-0.1250,0.0000,0.0000,0.0000,0.0000,16382.0000,183.0000,-194.0000,0.0000,-0.0989
22790592,101284.953125,21.370001,3.334568,0.2300,0.2000,9.5700,-0.1250,-0.0625,0.0625,0.0000,0.0000,0.0000,16382.0000,183.0000,-194.0000,0.0000,-0.1222
22820216,101279.953125,21.370001,3.750891,0.2200,0.2200,9.5900,-0.1875,-0.1250,-0.0625,0.0000,0.0000,0.0000,16382.0000,183.0000,-194.0000,0.0000,-0.0527
22859366,101276.031250,21.370001,4.077761,0.2100,0.2000,9.5800,-0.1250,-0.0625,0.1250,0.0000,0.0000,0.0000,16382.0000,183.0000,-194.0000,0.0000,0.0056
22889688,101279.953125,21.370001,3.750891,0.2100,0.2000,9.5600,-0.0625,0.1250,0.0000,0.0000,0.0000,0.0000,16382.0000,183.0000,-194.0000,0.0000,0.0103
22919838,101279.953125,21.370001,3.750891,0.2300,0.2200,9.5500,-0.1250,0.0625,-0.0625,0.0000,0.0000,0.0000,16382.0000,183.0000,-194.0000,0.0000,0.0400
22949965,101281.031250,21.370001,3.661424,0.2000,0.1900,9.6100,0.0000,-0.0625,0.0625,0.0000,0.0000,0.0000,16382.0000,183.0000,-194.0000,0.0000,0.0535
22981372,101283.867188,21.370001,3.425049,0.2100,0.1900,9.5900,0.0000,0.1875,0.0000,0.0000,0.0000,0.0000,16382.0000,183.0000,-194.0000,0.0000,0.0156
23010928,101283.867188,21.370001,3.425049,0.2200,0.2000,9.5700,0.0000,0.0625,0.1250,0.0000,0.0000,0.0000,16382.0000,183.0000,-194.0000,0.0000,0.0174
23040538,101283.867188,21.370001,3.425049,0.2200,0.2000,9.5600,-0.1250,0.0000,0.0000,0.0000,0.0000,0.0000,16382.0000,183.0000,-194.0000,0.0000,0.0174
23071936,101277.109375,21.370001,3.987782,0.2200,0.2000,9.6000,0.0625,0.0625,0.0625,0.0000,0.0000,0.0000,16382.0000,183.0000,-194.0000,0.0000,0.0642
23101556,101291.718750,21.370001,2.771362,0.2300,0.2000,9.5900,0.0000,-0.0625,-0.0625,0.0000,0.0000,0.0000,16382.0000,183.0000,-194.0000,0.0000,0.0227
23131199,101283.867188,21.370001,3.425049,0.2200,0.2000,9.5800,0.0000,0.1250,0.0625,0.0000,0.0000,0.0000,16382.0000,183.0000,-194.0000,0.0000,-0.0129
23160748,101281.718750,21.360001,3.603982,0.2200,0.2200,9.5800,0.0625,0.0625,0.0000,0.0000,0.0000,0.0000,16382.0000,183.0000,-194.0000,0.0000,-0.0537
23192117,101284.953125,21.370001,3.334568,0.2200,0.2000,9.6000,-0.0625,-0.0625,0.0000,0.0000,0.0000,0.0000,16382.0000,183.0000,-194.0000,0.0000,-0.0917
23221714,101282.796875,21.360001,3.514515,0.2300,0.2000,9.5700,-0.0625,-0.0625,0.0000,0.0000,0.0000,0.0000,16382.0000,183.0000,-194.0000,0.0000,-0.1219
23251291,101276.726562,21.350000,4.019808,0.2100,0.2000,9.5800,0.0625,0.0000,0.0625,0.0000,0.0000,0.0000,16382.0000,183.0000,-194.0000,0.0000,-0.0831
23290466,101282.796875,21.360001,3.514515,0.2200,0.2000,9.6000,0.1250,0.0000,-0.0625,0.0000,0.0000,0.0000,16382.0000,183.0000,-194.0000,0.0000,-0.0677
23320974,101281.718750,21.360001,3.603982,0.2200,0.2000,9.5800,0.0625,-0.1250,0.0625,0.0000,0.0000,0.0000,16382.0000,183.0000,-194.0000,0.0000,-0.0533
23351146,101281.718750,21.360001,3.603982,0.2300,0.2100,9.5700,0.0625,0.1250,-0.0625,0.0000,0.0000,0.0000,16382.0000,183.0000,-194.0000,0.0000,-0.0289
23382474,101281.718750,21.360001,3.603982,0.2200,0.2000,9.6000,0.0000,0.1875,0.0000,0.0000,0.0000,0.0000,16382.0000,183.0000,-194.0000,0.0000,-0.0637
23412071,101278.882812,21.360001,3.840360,0.2300,0.1900,9.5800,-0.1250,0.1250,0.0000,0.0000,0.0000,0.0000,16382.0000,183.0000,-194.0000,0.0000,0.0367
23441678,101281.718750,21.360001,3.603982,0.2200,0.1900,9.5600,0.1250,0.0625,0.0000,0.0000,0.0000,0.0000,16382.0000,183.0000,-194.0000,0.0000,0.0575
23471537,101285.648438,21.360001,3.276619,0.2200,0.2000,9.5800,0.0000,0.0625,0.0000,0.0000,0.0000,0.0000,16382.0000,183.0000,-194.0000,0.0000,0.0313
23502925,101281.718750,21.360001,3.603982,0.2200,0.2000,9.5800,-0.1250,0.0000,0.0000,0.0000,0.0000,0.0000,16382.0000,183.0000,-194.0000,0.0000,0.0583
23532542,101281.718750,21.360001,3.603982,0.2200,0.2100,9.5800,0.0000,-0.0625,0.0625,0.0000,0.0000,0.0000,16382.0000,183.0000,-194.0000,0.0000,0.0868
23562128,101288.867188,21.370001,3.008738,0.2200,0.1900,9.5900,0.0000,-0.0625,-0.0625,0.0000,0.0000,0.0000,16382.0000,183.0000,-194.0000,0.0000,-0.0155
23593553,101273.882812,21.360001,4.256704,0.2100,0.1900,9.5800,-0.1875,-0.0625,0.1250,0.0000,0.0000,0.0000,16382.0000,183.0000,-194.0000,0.0000,0.0403
23623123,101291.718750,21.370001,2.771362,0.2200,0.2000,9.5900,0.1250,0.1875,-0.0625,0.0000,0.0000,0.0000,16382.0000,183.0000,-194.0000,0.0000,-0.0430
23652717,101289.570312,21.360001,2.950283,0.2400,0.1800,9.5500,-0.0625,0.0000,0.0000,0.0000,0.0000,0.0000,16382.0000,183.0000,-194.0000,0.0000,-0.0858
23682327,101282.796875,21.360001,3.514515,0.2300,0.2000,9.5800,0.1250,0.0000,0.0625,0.0000,0.0000,0.0000,16382.0000,183.0000,-194.0000,0.0000,-0.0965
23721687,101283.867188,21.370001,3.425049,0.2200,0.2000,9.5800,-0.0625,0.1250,-0.0625,0.0000,0.0000,0.0000,16382.0000,183.0000,-194.0000,0.0000,-0.1214
23752196,101272.812500,21.350000,4.345669,0.2200,0.2000,9.5900,0.0625,0.2500,-0.0625,0.0000,0.0000,0.0000,16382.0000,183.0000,-194.0000,0.0000,-0.0621
23782449,101281.718750,21.360001,3.603982,0.2400,0.2000,9.5900,-0.0625,0.0000,0.0000,0.0000,0.0000,0.0000,16382.0000,183.0000,-194.0000,0.0000,-0.0199
23813821,101290.640625,21.360001,2.860822,0.2200,0.2100,9.5700,0.1250,-0.1875,0.0625,0.0000,0.0000,0.0000,16382.0000,183.0000,-194.0000,0.0000,-0.0847
23843421,101283.867188,21.370001,3.425049,0.2100,0.2100,9.5900,0.0625,0.0625,0.0625,0.0000,0.0000,0.0000,16382.0000,183.0000,-194.0000,0.0000,-0.0860
23873021,101281.718750,21.360001,3.603982,0.2300,0.2000,9.6100,0.1250,-0.1250,-0.0625,0.0000,0.0000,0.0000,16382.0000,183.0000,-194.0000,0.0000,-0.0395
23904396,101281.718750,21.360001,3.603982,0.2300,0.2000,9.5700,0.1250,0.0000,0.0000,0.0000,0.0000,0.0000,16382.0000,183.0000,-194.0000,0.0000,-0.1179
23933994,101274.960938,21.360001,4.166724,0.2200,0.2000,9.6000,0.0625,-0.1250,0.0625,0.0000,0.0000,0.0000,16382.0000,183.0000,-194.0000,0.0000,0.0133
23963600,101287.796875,21.370001,3.097692,0.2100,0.2100,9.5800,0.0000,-0.0625,-0.0625,0.0000,0.0000,0.0000,16382.0000,183.0000,-194.0000,0.0000,0.0346
23993196,101291.718750,21.370001,2.771362,0.2200,0.2100,9.5800,0.0000,0.0000,0.0625,0.0000,0.0000,0.0000,16382.0000,183.0000,-194.0000,0.0000,-0.0230
24024572,101273.882812,21.360001,4.256704,0.2300,0.2100,9.5700,0.0625,-0.0625,-0.0625,0.0000,0.0000,0.0000,16382.0000,183.0000,-194.0000,0.0000,0.0471
24054184,101281.718750,21.360001,3.603982,0.2200,0.2000,9.5800,-0.0625,-0.1250,0.0000,0.0000,0.0000,0.0000,16382.0000,183.0000,-194.0000,0.0000,-0.0390
24093726,101281.718750,21.360001,3.603982,0.2300,0.2100,9.5600,0.0625,0.0000,-0.0625,0.0000,0.0000,0.0000,16382.0000,183.0000,-194.0000,0.0000,-0.0444
24152651,101283.867188,21.370001,3.425049,0.2200,0.2000,9.5900,-0.0625,-0.0625,-0.0625,0.0000,0.0000,0.0000,16382.0000,183.0000,-194.0000,0.0000,0.0186
24183563,101276.031250,21.370001,4.077761,0.2200,0.2100,9.5700,0.0000,-0.0625,0.1250,0.0000,0.0000,0.0000,16382.0000,183.0000,-194.0000,0.0000,0.0708
24213613,101284.953125,21.370001,3.334568,0.2300,0.2000,9.6100,0.1250,-0.1250,0.0000,0.0000,0.0000,0.0000,16382.0000,183.0000,-194.0000,0.0000,0.0474
24243711,101289.570312,21.360001,2.950283,0.2200,0.2100,9.5800,0.0625,-0.0625,-0.0625,0.0000,0.0000,0.0000,16382.0000,183.0000,-194.0000,0.0000,-0.0001
24275129,101276.031250,21.370001,4.077761,0.2200,0.2000,9.5800,0.0000,-0.0625,0.0000,0.0000,0.0000,0.0000,16382.0000,183.0000,-194.0000,0.0000,-0.0221
24304704,101281.718750,21.360001,3.603982,0.2000,0.2000,9.5900,0.1250,0.0625,-0.1250,0.0000,0.0000,0.0000,16382.0000,183.0000,-194.0000,0.0000,0.0250
24334286,101277.796875,21.360001,3.930846,0.2100,0.1900,9.5800,0.1250,-0.0625,0.0000,0.0000,0.0000,0.0000,16382.0000,183.0000,-194.0000,0.0000,0.1308
24365638,101277.796875,21.360001,3.930846,0.2200,0.2000,9.5700,-0.0625,0.0000,0.0000,0.0000,0.0000,0.0000,16382.0000,183.0000,-194.0000,0.0000,0.0863
24395230,101282.796875,21.360001,3.514515,0.2300,0.2100,9.6000,0.0000,-0.0625,0.0000,0.0000,0.0000,0.0000,16382.0000,183.0000,-194.0000,0.0000,0.0821
24424803,101277.796875,21.360001,3.930846,0.2200,0.2200,9.5700,0.0000,-0.0625,0.1875,0.0000,0.0000,0.0000,16382.0000,183.0000,-194.0000,0.0000,0.1177
24456215,101283.867188,21.370001,3.425049,0.2100,0.2100,9.5900,0.0000,0.1875,-0.0625,0.0000,0.0000,0.0000,16382.0000,183.0000,-194.0000,0.0000,0.1242
24485757,101273.882812,21.360001,4.256704,0.2200,0.1800,9.5800,0.0000,0.2500,-0.0625,0.0000,0.0000,0.0000,16382.0000,183.0000,-194.0000,0.0000,0.1320
24515383,101281.718750,21.360001,3.603982,0.2200,0.2200,9.5700,0.0000,-0.0625,-0.0625,0.0000,0.0000,0.0000,16382.0000,183.0000,-194.0000,0.0000,0.1601
24544988,101279.953125,21.370001,3.750891,0.2100,0.2200,9.5800,0.0625,-0.0625,0.0625,0.0000,0.0000,0.0000,16382.0000,183.0000,-194.0000,0.0000,0.2336
24584360,101278.882812,21.360001,3.840360,0.2200,0.1900,9.6000,0.0625,0.0625,0.0000,0.0000,0.0000,0.0000,16382.0000,183.0000,-194.0000,0.0000,0.2016
24614857,101291.718750,21.370001,2.771362,0.2200,0.2000,9.5800,0.0000,0.0000,0.0000,0.0000,0.0000,0.0000,16382.0000,183.0000,-194.0000,0.0000,0.1314
24645024,101291.718750,21.370001,2.771362,0.2200,0.2000,9.5800,0.0625,-0.1250,0.0625,0.0000,0.0000,0.0000,16382.0000,183.0000,-194.0000,0.0000,0.0398
24676421,101287.796875,21.370001,3.097692,0.2200,0.1900,9.6100,0.0000,0.0625,0.0000,0.0000,0.0000,0.0000,16382.0000,183.0000,-194.0000,0.0000,-0.0501
24705959,101276.031250,21.370001,4.077761,0.2300,0.2000,9.5900,0.0625,0.0625,-0.0625,0.0000,0.0000,0.0000,16382.0000,183.0000,-194.0000,0.0000,-0.0068
24735568,101283.867188,21.370001,3.425049,0.2200,0.2100,9.5800,0.0000,0.1250,0.0625,0.0000,0.0000,0.0000,16382.0000,183.0000,-194.0000,0.0000,-0.0538
24765409,101274.960938,21.360001,4.166724,0.2200,0.2000,9.5800,0.0000,0.2500,0.0625,0.0000,0.0000,0.0000,16382.0000,183.0000,-194.0000,0.0000,0.0037
24796770,101287.796875,21.370001,3.097692,0.2100,0.2100,9.5600,0.0000,0.0000,0.0625,0.0000,0.0000,0.0000,16382.0000,183.0000,-194.0000,0.0000,-0.1038
24826381,101277.109375,21.370001,3.987782,0.2200,0.1900,9.5700,-0.0625,-0.1250,-0.0625,0.0000,0.0000,0.0000,16382.0000,183.0000,-194.0000,0.0000,-0.0648
24856018,101278.882812,21.360001,3.840360,0.2200,0.1900,9.5600,-0.1250,0.1250,0.0000,0.0000,0.0000,0.0000,16382.0000,183.0000,-194.0000,0.0000,-0.0624
24887375,101283.867188,21.370001,3.425049,0.2000,0.1900,9.5700,0.0625,-0.1250,-0.1250,0.0000,0.0000,0.0000,16382.0000,183.0000,-194.0000,0.0000,-0.1004
24925770,101283.867188,21.370001,3.425049,0.2200,0.2000,9.5600,0.0000,0.0000,-0.0625,0.0000,0.0000,0.0000,16382.0000,183.0000,-194.0000,0.0000,-0.0314
24984166,101279.953125,21.370001,3.750891,0.2400,0.2100,9.5800,0.0625,0.0000,0.0000,0.0000,0.0000,0.0000,16382.0000,183.0000,-194.0000,0.0000,0.0636
25025322,101286.023438,21.379999,3.245611,0.2300,0.2000,9.5700,-0.0625,0.0000,-0.0625,0.0000,0.0000,0.0000,16382.0000,183.0000,-194.0000,0.0000,0.0903
25056049,101288.867188,21.370001,3.008738,0.2200,0.1900,9.5700,-0.0625,0.0625,-0.1250,0.0000,0.0000,0.0000,16382.0000,183.0000,-194.0000,0.0000,-0.0047
25086248,101284.953125,21.370001,3.334568,0.2300,0.2000,9.5400,0.0625,-0.1250,0.1875,0.0000,0.0000,0.0000,16382.0000,183.0000,-194.0000,0.0000,-0.0149
25116346,101291.718750,21.370001,2.771362,0.2200,0.2000,9.5900,0.0000,-0.0625,-0.0625,0.0000,0.0000,0.0000,16382.0000,183.0000,-194.0000,0.0000,-0.1378
25147723,101283.867188,21.370001,3.425049,0.2300,0.2000,9.5800,0.0000,0.0000,0.1250,0.0000,0.0000,0.0000,16382.0000,183.0000,-194.0000,0.0000,-0.1015
25177318,101279.953125,21.370001,3.750891,0.2200,0.2000,9.5900,0.0625,0.0000,-0.1250,0.0000,0.0000,0.0000,16382.0000,183.0000,-194.0000,0.0000,-0.1400
25206892,101287.796875,21.370001,3.097692,0.2200,0.2000,9.5900,0.0625,0.0000,0.0625,0.0000,0.0000,0.0000,16382.0000,183.0000,-194.0000,0.0000,-0.1911
25238279,101279.953125,21.370001,3.750891,0.2200,0.2000,9.5900,-0.0625,-0.0625,0.0000,0.0000,0.0000,0.0000,16382.0000,183.0000,-194.0000,0.0000,-0.1781
25267871,101287.796875,21.370001,3.097692,0.2200,0.2000,9.5900,-0.1250,0.0000,-0.0625,0.0000,0.0000,0.0000,16382.0000,183.0000,-194.0000,0.0000,-0.2138
25297475,101288.867188,21.370001,3.008738,0.2200,0.2000,9.5800,0.0625,0.0000,0.0625,0.0000,0.0000,0.0000,16382.0000,183.0000,-194.0000,0.0000,-0.2779
25327148,101287.796875,21.370001,3.097692,0.2200,0.2000,9.5900,-0.0625,0.1250,0.0625,0.0000,0.0000,0.0000,16382.0000,183.0000,-194.0000,0.0000,-0.2861
25366699,101291.718750,21.370001,2.771362,0.2200,0.2000,9.5800,-0.1250,0.0000,0.0000,0.0000,0.0000,0.0000,16382.0000,183.0000,-194.0000,0.0000,-0.2784
25397251,101282.796875,21.360001,3.514515,0.2200,0.1900,9.5800,0.0000,-0.0625,-0.0625,0.0000,0.0000,0.0000,16382.0000,183.0000,-194.0000,0.0000,-0.2586
25427357,101285.648438,21.360001,3.276619,0.2200,0.2100,9.6000,0.0625,0.1250,0.0000,0.0000,0.0000,0.0000,16382.0000,183.0000,-194.0000,0.0000,-0.2164
25466924,101284.953125,21.370001,3.334568,0.2200,0.2100,9.5700,0.0000,0.0625,-0.0625,0.0000,0.0000,0.0000,16382.0000,183.0000,-194.0000,0.0000,-0.2236
25497431,101291.718750,21.370001,2.771362,0.2100,0.2000,9.5600,0.1250,0.3125,0.0625,0.0000,0.0000,0.0000,16382.0000,183.0000,-194.0000,0.0000,-0.3049
25527545,101283.867188,21.370001,3.425049,0.2200,0.2000,9.5700,-0.1250,0.0000,-0.0625,0.0000,0.0000,0.0000,16382.0000,183.0000,-194.0000,0.0000,-0.2686
25558903,101290.640625,21.360001,2.860822,0.2200,0.2000,9.5700,-0.0625,0.0000,0.0000,0.0000,0.0000,0.0000,16382.0000,183.0000,-194.0000,0.0000,-0.3315
25588499,101276.031250,21.370001,4.077761,0.2300,0.2000,9.5800,0.0625,-0.0625,0.0000,0.0000,0.0000,0.0000,16382.0000,183.0000,-194.0000,0.0000,-0.2531
25618067,101281.718750,21.360001,3.603982,0.2200,0.2000,9.5800,0.1250,-0.1250,0.0000,0.0000,0.0000,0.0000,16382.0000,183.0000,-194.0000,0.0000,-0.2102
25647992,101281.718750,21.360001,3.603982,0.2300,0.2000,9.6000,0.1250,0.1250,0.0625,0.0000,0.0000,0.0000,16382.0000,183.0000,-194.0000,0.0000,-0.1465
25679431,101286.718750,21.360001,3.187663,0.2100,0.1900,9.5800,-0.1875,-0.0625,0.0000,0.0000,0.0000,0.0000,16382.0000,183.0000,-194.0000,0.0000,-0.0966
25708977,101281.031250,21.370001,3.661424,0.2300,0.2000,9.5700,0.0000,0.0000,0.0625,0.0000,0.0000,0.0000,16382.0000,183.0000,-194.0000,0.0000,-0.0830
25738598,101290.640625,21.360001,2.860822,0.2400,0.1900,9.5700,0.0000,-0.0625,-0.0625,0.0000,0.0000,0.0000,16382.0000,183.0000,-194.0000,0.0000,-0.1133
25769952,101276.726562,21.350000,4.019808,0.2300,0.2000,9.5900,0.0000,0.1875,-0.1250,0.0000,0.0000,0.0000,16382.0000,183.0000,-194.0000,0.0000,-0.0437
25799573,101282.796875,21.360001,3.514515,0.2200,0.2100,9.5700,-0.1250,0.1250,0.0000,0.0000,0.0000,0.0000,16382.0000,183.0000,-194.0000,0.0000,0.0271
25829181,101283.867188,21.370001,3.425049,0.2200,0.2100,9.6000,0.0000,0.1250,0.0625,0.0000,0.0000,0.0000,16382.0000,183.0000,-194.0000,0.0000,0.0176
25858789,101283.867188,21.370001,3.425049,0.2300,0.2100,9.5900,-0.0625,0.0000,0.0000,0.0000,0.0000,0.0000,16382.0000,183.0000,-194.0000,0.0000,0.0870
25898306,101283.867188,21.370001,3.425049,0.2300,0.2000,9.5900,0.0000,0.1250,-0.0625,0.0000,0.0000,0.0000,16382.0000,183.0000,-194.0000,0.0000,0.0254
25928855,101282.796875,21.360001,3.514515,0.2300,0.2000,9.5800,-0.0625,0.2500,0.0000,0.0000,0.0000,0.0000,16382.0000,183.0000,-194.0000,0.0000,0.0247
25958942,101284.953125,21.370001,3.334568,0.2200,0.2000,9.5900,-0.0625,0.2500,0.0000,0.0000,0.0000,0.0000,16382.0000,183.0000,-194.0000,0.0000,0.0097
25990340,101278.882812,21.360001,3.840360,0.2400,0.2100,9.5900,0.0000,0.1250,-0.0625,0.0000,0.0000,0.0000,16382.0000,183.0000,-194.0000,0.0000,0.0685
26019955,101283.867188,21.370001,3.425049,0.2400,0.2000,9.5800,0.0000,0.0000,-0.0625,0.0000,0.0000,0.0000,16382.0000,183.0000,-194.0000,0.0000,0.0549
26049564,101286.718750,21.360001,3.187663,0.2200,0.2100,9.5800,0.0625,-0.1875,0.0625,0.0000,0.0000,0.0000,16382.0000,183.0000,-194.0000,0.0000,0.0924
26080953,101277.796875,21.360001,3.930846,0.2200,0.2200,9.5700,-0.1250,0.0625,-0.0625,0.0000,0.0000,0.0000,16382.0000,183.0000,-194.0000,0.0000,0.0900
26110590,101282.796875,21.360001,3.514515,0.2200,0.2100,9.6100,-0.0625,0.1875,-0.0625,0.0000,0.0000,0.0000,16382.0000,183.0000,-194.0000,0.0000,0.0918
26140220,101282.796875,21.360001,3.514515,0.2200,0.1800,9.5700,0.0000,-0.0625,-0.0625,0.0000,0.0000,0.0000,16382.0000,183.0000,-194.0000,0.0000,0.1055
26169788,101295.640625,21.370001,2.444534,0.2200,0.1800,9.5700,0.0000,0.0625,-0.0625,0.0000,0.0000,0.0000,16382.0000,183.0000,-194.0000,0.0000,0.0353
26201214,101277.796875,21.360001,3.930846,0.2200,0.2200,9.5800,0.1250,-0.1250,0.1250,0.0000,0.0000,0.0000,16382.0000,183.0000,-194.0000,0.0000,0.0627
26230787,101288.867188,21.370001,3.008738,0.2200,0.2200,9.5800,-0.0625,-0.1250,-0.0625,0.0000,0.0000,0.0000,16382.0000,183.0000,-194.0000,0.0000,0.0074
26260342,101286.718750,21.360001,3.187663,0.2300,0.2000,9.5600,0.0000,0.0000,0.0000,0.0000,0.0000,0.0000,16382.0000,183.0000,-194.0000,0.0000,-0.0091
26299544,101291.718750,21.370001,2.771362,0.2300,0.2000,9.5900,0.0000,0.0000,-0.0625,0.0000,0.0000,0.0000,16382.0000,183.0000,-194.0000,0.0000,-0.0899
26330036,101282.796875,21.360001,3.514515,0.2100,0.2000,9.6100,-0.0625,0.0000,0.0625,0.0000,0.0000,0.0000,16382.0000,183.0000,-194.0000,0.0000,-0.0827
26360160,101283.867188,21.370001,3.425049,0.2200,0.2000,9.5800,0.0000,-0.0625,-0.1250,0.0000,0.0000,0.0000,16382.0000,183.0000,-194.0000,0.0000,-0.0441
26390168,101282.796875,21.360001,3.514515,0.2200,0.1900,9.5800,0.1875,-0.0625,0.0000,0.0000,0.0000,0.0000,16382.0000,183.0000,-194.0000,0.0000,-0.0941
26421519,101281.718750,21.360001,3.603982,0.2400,0.2000,9.6000,-0.1250,0.0000,-0.0625,0.0000,0.0000,0.0000,16382.0000,183.0000,-194.0000,0.0000,-0.0775
26451100,101282.796875,21.360001,3.514515,0.2300,0.2100,9.6100,0.0000,-0.0625,-0.0625,0.0000,0.0000,0.0000,16382.0000,183.0000,-194.0000,0.0000,-0.0710
26480692,101277.109375,21.370001,3.987782,0.2200,0.2100,9.6100,-0.0625,-0.3125,0.1250,0.0000,0.0000,0.0000,16382.0000,183.0000,-194.0000,0.0000,0.0721
26512106,101291.718750,21.370001,2.771362,0.2100,0.2100,9.6100,-0.1250,-0.1250,-0.0625,0.0000,0.0000,0.0000,16382.0000,183.0000,-194.0000,0.0000,-0.0308
26541724,101283.867188,21.370001,3.425049,0.2300,0.2000,9.5900,-0.0625,-0.0625,0.0000,0.0000,0.0000,0.0000,16382.0000,183.0000,-194.0000,0.0000,0.0174
26571320,101283.867188,21.370001,3.425049,0.2200,0.2000,9.5900,0.0625,0.1875,-0.1250,0.0000,0.0000,0.0000,16382.0000,183.0000,-194.0000,0.0000,0.0375
26602693,101283.867188,21.370001,3.425049,0.2100,0.2100,9.5900,-0.1250,-0.1250,0.0625,0.0000,0.0000,0.0000,16382.0000,183.0000,-194.0000,0.0000,0.0946
26632323,101271.039062,21.360001,4.493606,0.2200,0.2000,9.5800,0.0000,-0.1250,0.0000,0.0000,0.0000,0.0000,16382.0000,183.0000,-194.0000,0.0000,0.1693
26661872,101276.031250,21.370001,4.077761,0.2400,0.2000,9.5700,0.0000,0.0000,0.0625,0.0000,0.0000,0.0000,16382.0000,183.0000,-194.0000,0.0000,0.2084
26691466,101287.796875,21.370001,3.097692,0.2300,0.2000,9.5900,0.0625,0.0000,-0.0625,0.0000,0.0000,0.0000,16382.0000,183.0000,-194.0000,0.0000,0.1733
26730871,101283.867188,21.370001,3.425049,0.2300,0.2000,9.5800,0.0000,-0.1875,0.0625,0.0000,0.0000,0.0000,16382.0000,183.0000,-194.0000,0.0000,0.1619
26761170,101286.718750,21.360001,3.187663,0.2200,0.2000,9.5700,0.0625,0.2500,-0.0625,0.0000,0.0000,0.0000,16382.0000,183.0000,-194.0000,0.0000,0.1274
26791301,101288.867188,21.370001,3.008738,0.2200,0.2000,9.5700,-0.0625,0.0000,-0.0625,0.0000,0.0000,0.0000,16382.0000,183.0000,-194.0000,0.0000,0.0444
26822673,101284.953125,21.370001,3.334568,0.2200,0.2100,9.6000,-0.0625,-0.0625,0.0625,0.0000,0.0000,0.0000,16382.0000,183.0000,-194.0000,0.0000,0.0960
26852292,101288.867188,21.370001,3.008738,0.2200,0.2000,9.5800,0.1250,-0.1250,0.0000,0.0000,0.0000,0.0000,16382.0000,183.0000,-194.0000,0.0000,0.0543
26881921,101274.960938,21.360001,4.166724,0.2200,0.1800,9.5700,0.0000,0.0000,0.1250,0.0000,0.0000,0.0000,16382.0000,183.0000,-194.0000,0.0000,0.1071
26911799,101278.882812,21.360001,3.840360,0.2200,0.2000,9.5700,0.0000,-0.1250,0.1875,0.0000,0.0000,0.0000,16382.0000,183.0000,-194.0000,0.0000,0.1273
26943202,101279.953125,21.370001,3.750891,0.2200,0.1900,9.5900,0.0625,-0.0625,0.0625,0.0000,0.0000,0.0000,16382.0000,183.0000,-194.0000,0.0000,0.0483
26972824,101288.867188,21.370001,3.008738,0.2200,0.2100,9.5800,-0.0625,-0.0625,0.0000,0.0000,0.0000,0.0000,16382.0000,183.0000,-194.0000,0.0000,-0.0533
27002453,101274.960938,21.360001,4.166724,0.2300,0.2000,9.5800,0.0000,0.0625,-0.0625,0.0000,0.0000,0.0000,16382.0000,183.0000,-194.0000,0.0000,0.0370
27033778,101282.796875,21.360001,3.514515,0.2200,0.1900,9.6000,-0.1250,-0.1250,0.0000,0.0000,0.0000,0.0000,16382.0000,183.0000,-194.0000,0.0000,0.0311
27063376,101293.867188,21.379999,2.592444,0.2000,0.1900,9.5900,0.0000,0.1250,0.0000,0.0000,0.0000,0.0000,16382.0000,183.0000,-194.0000,0.0000,-0.0118
27092967,101283.867188,21.370001,3.425049,0.2200,0.2200,9.5800,0.0000,-0.1250,-0.1250,0.0000,0.0000,0.0000,16382.0000,183.0000,-194.0000,0.0000,0.0185
27132013,101282.101562,21.379999,3.571957,0.2200,0.2000,9.5900,0.0000,0.0625,-0.0625,0.0000,0.0000,0.0000,16382.0000,183.0000,-194.0000,0.0000,0.0524
27162367,101284.953125,21.370001,3.334568,0.2000,0.1900,9.5800,0.0000,0.0625,-0.1250,0.0000,0.0000,0.0000,16382.0000,183.0000,-194.0000,0.0000,0.0904
27192509,101283.867188,21.370001,3.425049,0.2200,0.2100,9.5900,-0.0625,0.0625,-0.0625,0.0000,0.0000,0.0000,16382.0000,183.0000,-194.0000,0.0000,0.0198
27222634,101286.718750,21.360001,3.187663,0.2300,0.2100,9.5900,-0.0625,0.0000,0.1250,0.0000,0.0000,0.0000,16382.0000,183.0000,-194.0000,0.0000,-0.0455
27253993,101293.492188,21.360001,2.623449,0.2200,0.1900,9.6000,0.0000,-0.0625,0.0000,0.0000,0.0000,0.0000,16382.0000,183.0000,-194.0000,0.0000,-0.1375
27283632,101283.867188,21.370001,3.425049,0.2000,0.2000,9.5700,0.0000,0.0000,-0.0625,0.0000,0.0000,0.0000,16382.0000,183.0000,-194.0000,0.0000,-0.1071
27313226,101283.867188,21.370001,3.425049,0.2200,0.2000,9.5800,0.0625,-0.1250,0.0000,0.0000,0.0000,0.0000,16382.0000,183.0000,-194.0000,0.0000,-0.1694
27354851,101285.648438,21.360001,3.276619,0.2300,0.2000,9.5700,0.0625,0.0625,0.0625,0.0000,0.0000,0.0000,16382.0000,183.0000,-194.0000,0.0000,-0.1884
27403220,101279.953125,21.370001,3.750891,0.2200,0.2000,9.5900,0.2500,-0.1875,0.0000,0.0000,0.0000,0.0000,16382.0000,183.0000,-194.0000,0.0000,-0.0791
27433383,101276.031250,21.370001,4.077761,0.2200,0.2000,9.5700,0.0000,0.0625,0.0000,0.0000,0.0000,0.0000,16382.0000,183.0000,-194.0000,0.0000,-0.0269
27463356,101274.960938,21.360001,4.166724,0.2300,0.2000,9.6000,0.0000,0.0625,0.0000,0.0000,0.0000,0.0000,16382.0000,183.0000,-194.0000,0.0000,0.0178
27494751,101276.031250,21.370001,4.077761,0.2300,0.1900,9.5900,0.0000,0.0625,-0.0625,0.0000,0.0000,0.0000,16382.0000,183.0000,-194.0000,0.0000,0.0808
27524303,101276.031250,21.370001,4.077761,0.2200,0.2100,9.5800,-0.0625,0.0625,0.1250,0.0000,0.0000,0.0000,16382.0000,183.0000,-194.0000,0.0000,0.1312
27553908,101274.960938,21.360001,4.166724,0.2400,0.2100,9.6000,0.0000,-0.0625,0.0000,0.0000,0.0000,0.0000,16382.0000,183.0000,-194.0000,0.0000,0.2226
27593262,101283.867188,21.370001,3.425049,0.2200,0.2100,9.5800,0.0625,0.1250,-0.0625,0.0000,0.0000,0.0000,16382.0000,183.0000,-194.0000,0.0000,0.3028
27623791,101286.718750,21.360001,3.187663,0.2300,0.2000,9.5800,0.0000,0.0000,0.0000,0.0000,0.0000,0.0000,16382.0000,183.0000,-194.0000,0.0000,0.2790
27653918,101291.718750,21.370001,2.771362,0.2200,0.2000,9.5900,0.0625,0.0625,0.0000,0.0000,0.0000,0.0000,16382.0000,183.0000,-194.0000,0.0000,0.2368
27685278,101279.953125,21.370001,3.750891,0.2200,0.2000,9.5600,0.0625,0.0000,0.0000,0.0000,0.0000,0.0000,16382.0000,183.0000,-194.0000,0.0000,0.2795
27714945,101279.953125,21.370001,3.750891,0.2400,0.2100,9.5800,0.1250,0.0625,0.0000,0.0000,0.0000,0.0000,16382.0000,183.0000,-194.0000,0.0000,0.2748
27744531,101279.953125,21.370001,3.750891,0.2200,0.2000,9.5500,0.0625,0.1250,-0.0625,0.0000,0.0000,0.0000,16382.0000,183.0000,-194.0000,0.0000,0.2160
27774372,101292.789062,21.370001,2.681902,0.2200,0.2100,9.5800,0.0000,-0.1250,0.0000,0.0000,0.0000,0.0000,16382.0000,183.0000,-194.0000,0.0000,0.0925
27805784,101279.953125,21.370001,3.750891,0.2200,0.2000,9.5600,0.2500,-0.0625,0.0625,0.0000,0.0000,0.0000,16382.0000,183.0000,-194.0000,0.0000,0.0450
27835329,101284.953125,21.370001,3.334568,0.2300,0.2000,9.5800,0.0000,-0.1875,0.1250,0.0000,0.0000,0.0000,16382.0000,183.0000,-194.0000,0.0000,-0.0323
27864912,101278.882812,21.360001,3.840360,0.2100,0.2100,9.5900,-0.1250,0.0000,-0.1250,0.0000,0.0000,0.0000,16382.0000,183.0000,-194.0000,0.0000,-0.0863
27896333,101287.796875,21.370001,3.097692,0.2100,0.1900,9.5900,-0.0625,0.0000,0.0000,0.0000,0.0000,0.0000,16382.0000,183.0000,-194.0000,0.0000,-0.1107
27925942,101273.882812,21.360001,4.256704,0.2200,0.2000,9.5700,-0.0625,-0.0625,0.1250,0.0000,0.0000,0.0000,16382.0000,183.0000,-194.0000,0.0000,-0.0204
27955540,101283.867188,21.370001,3.425049,0.2400,0.2200,9.5500,-0.0625,-0.0625,-0.0625,0.0000,0.0000,0.0000,16382.0000,183.0000,-194.0000,0.0000,0.0467
27985189,101287.796875,21.370001,3.097692,0.2100,0.1900,9.5800,-0.0625,-0.1250,0.0625,0.0000,0.0000,0.0000,16382.0000,183.0000,-194.0000,0.0000,-0.0085
28024583,101283.867188,21.370001,3.425049,0.2200,0.2000,9.5600,0.0000,-0.1250,-0.0625,0.0000,0.0000,0.0000,16382.0000,183.0000,-194.0000,0.0000,-0.0393
28064920,101273.882812,21.360001,4.256704,0.2200,0.2000,9.5700,0.0625,-0.0625,0.0000,0.0000,0.0000,0.0000,16382.0000,183.0000,-194.0000,0.0000,0.0059
28117839,101285.648438,21.360001,3.276619,0.2300,0.2000,9.5800,-0.0625,-0.1250,0.0000,0.0000,0.0000,0.0000,16382.0000,183.0000,-194.0000,0.0000,0.0553
28153416,101291.718750,21.370001,2.771362,0.2100,0.1900,9.5600,0.0000,-0.1250,0.0625,0.0000,0.0000,0.0000,16382.0000,183.0000,-194.0000,0.0000,-0.0296
28185242,101286.023438,21.379999,3.245611,0.2400,0.1900,9.5700,0.0625,-0.1875,0.0625,0.0000,0.0000,0.0000,16382.0000,183.0000,-194.0000,0.0000,-0.0349
28215670,101281.718750,21.360001,3.603982,0.2100,0.2100,9.6100,-0.0625,0.0625,0.0625,0.0000,0.0000,0.0000,16382.0000,183.0000,-194.0000,0.0000,-0.0621
28247100,101283.867188,21.370001,3.425049,0.2200,0.2000,9.5900,0.0000,0.0625,-0.0625,0.0000,0.0000,0.0000,16382.0000,183.0000,-194.0000,0.0000,-0.0080
28276718,101279.953125,21.370001,3.750891,0.2300,0.2000,9.5800,-0.1250,0.0625,0.0000,0.0000,0.0000,0.0000,16382.0000,183.0000,-194.0000,0.0000,-0.0520
28306269,101290.640625,21.360001,2.860822,0.2100,0.2000,9.5600,0.0000,0.0000,0.0000,0.0000,0.0000,0.0000,16382.0000,183.0000,-194.0000,0.0000,-0.1037
28336134,101281.718750,21.360001,3.603982,0.2300,0.2100,9.5900,-0.0625,-0.0625,0.0000,0.0000,0.0000,0.0000,16382.0000,183.0000,-194.0000,0.0000,-0.0567
28367575,101285.648438,21.360001,3.276619,0.2200,0.2000,9.5900,0.0000,-0.1875,0.0000,0.0000,0.0000,0.0000,16382.0000,183.0000,-194.0000,0.0000,-0.0733
28397129,101283.867188,21.370001,3.425049,0.2000,0.1900,9.5700,-0.1875,-0.0625,-0.1250,0.0000,0.0000,0.0000,16382.0000,183.0000,-194.0000,0.0000,-0.1648
28426727,101280.648438,21.350000,3.693449,0.2200,0.2000,9.5700,0.0000,0.0000,0.0000,0.0000,0.0000,0.0000,16382.0000,183.0000,-194.0000,0.0000,-0.1303
28466121,101281.718750,21.360001,3.603982,0.2200,0.2100,9.5800,0.0625,0.0625,0.0625,0.0000,0.0000,0.0000,16382.0000,183.0000,-194.0000,0.0000,-0.0589
28496472,101283.867188,21.370001,3.425049,0.2100,0.2000,9.5700,0.0000,0.0000,0.0625,0.0000,0.0000,0.0000,16382.0000,183.0000,-194.0000,0.0000,-0.0261
28526639,101284.953125,21.370001,3.334568,0.2200,0.2100,9.5700,-0.0625,-0.0625,0.0625,0.0000,0.0000,0.0000,16382.0000,183.0000,-194.0000,0.0000,-0.0430
28556753,101287.796875,21.370001,3.097692,0.2200,0.2000,9.5900,0.0000,0.0000,0.0000,0.0000,0.0000,0.0000,16382.0000,183.0000,-194.0000,0.0000,-0.0626
28588178,101290.640625,21.360001,2.860822,0.2200,0.1800,9.5800,-0.0625,-0.0625,0.0000,0.0000,0.0000,0.0000,16382.0000,183.0000,-194.0000,0.0000,-0.1487
28617770,101282.796875,21.360001,3.514515,0.2300,0.2200,9.5900,0.0625,0.1250,-0.0625,0.0000,0.0000,0.0000,16382.0000,183.0000,-194.0000,0.0000,-0.0703
28647382,101291.718750,21.370001,2.771362,0.2300,0.2000,9.5700,-0.0625,-0.1250,0.0000,0.0000,0.0000,0.0000,16382.0000,183.0000,-194.0000,0.0000,-0.1387
28678778,101290.640625,21.360001,2.860822,0.2200,0.1900,9.5800,-0.1250,0.0000,-0.0625,0.0000,0.0000,0.0000,16382.0000,183.0000,-194.0000,0.0000,-0.1856
28708404,101281.718750,21.360001,3.603982,0.1900,0.2100,9.6000,-0.0625,0.1250,0.0000,0.0000,0.0000,0.0000,16382.0000,183.0000,-194.0000,0.0000,-0.1713
28738021,101279.953125,21.370001,3.750891,0.2200,0.2000,9.5800,0.0625,0.0000,0.0000,0.0000,0.0000,0.0000,16382.0000,183.0000,-194.0000,0.0000,-0.1691
28776820,101281.031250,21.370001,3.661424,0.2200,0.2000,9.5600,0.0625,-0.0625,0.0625,0.0000,0.0000,0.0000,16382.0000,183.0000,-194.0000,0.0000,-0.1699
28807428,101279.953125,21.370001,3.750891,0.2000,0.1900,9.5900,0.0000,-0.1250,0.0000,0.0000,0.0000,0.0000,16382.0000,183.0000,-194.0000,0.0000,-0.1439
28837756,101286.718750,21.360001,3.187663,0.2200,0.2100,9.5900,0.1250,0.1250,0.0000,0.0000,0.0000,0.0000,16382.0000,183.0000,-194.0000,0.0000,-0.1586
28867703,101281.718750,21.360001,3.603982,0.2200,0.1900,9.6000,-0.0625,0.0625,0.0000,0.0000,0.0000,0.0000,16382.0000,183.0000,-194.0000,0.0000,-0.1275
28907426,101291.718750,21.370001,2.771362,0.2200,0.2000,9.5800,0.0625,0.1875,0.0000,0.0000,0.0000,0.0000,16382.0000,183.0000,-194.0000,0.0000,-0.1234
28937905,101281.718750,21.360001,3.603982,0.2200,0.2000,9.5800,0.0000,0.0000,0.0000,0.0000,0.0000,0.0000,16382.0000,183.0000,-194.0000,0.0000,-0.1180
28968023,101282.796875,21.360001,3.514515,0.2400,0.2100,9.5900,0.0625,0.0000,-0.0625,0.0000,0.0000,0.0000,16382.0000,183.0000,-194.0000,0.0000,-0.0485
28999420,101274.960938,21.360001,4.166724,0.2100,0.2000,9.5900,0.0000,0.0625,0.0625,0.0000,0.0000,0.0000,16382.0000,183.0000,-194.0000,0.0000,0.0738
29029002,101283.867188,21.370001,3.425049,0.2300,0.2100,9.5800,-0.1875,0.2500,-0.0625,0.0000,0.0000,0.0000,16382.0000,183.0000,-194.0000,0.0000,0.0689
29058609,101282.796875,21.360001,3.514515,0.2200,0.1900,9.5700,-0.0625,0.0000,0.0000,0.0000,0.0000,0.0000,16382.0000,183.0000,-194.0000,0.0000,0.0584
29088479,101282.796875,21.360001,3.514515,0.2200,0.2100,9.5700,-0.1250,-0.0625,-0.0625,0.0000,0.0000,0.0000,16382.0000,183.0000,-194.0000,0.0000,0.0549
29119877,101281.718750,21.360001,3.603982,0.2200,0.2000,9.5800,0.0000,0.1250,0.0000,0.0000,0.0000,0.0000,16382.0000,183.0000,-194.0000,0.0000,0.0497
29149480,101282.796875,21.360001,3.514515,0.2200,0.2000,9.5900,-0.0625,0.0625,0.0000,0.0000,0.0000,0.0000,16382.0000,183.0000,-194.0000,0.0000,0.0954
29179108,101278.882812,21.360001,3.840360,0.2200,0.2000,9.5800,-0.0625,0.0625,-0.0625,0.0000,0.0000,0.0000,16382.0000,183.0000,-194.0000,0.0000,0.1108
29210452,101282.796875,21.360001,3.514515,0.2200,0.2000,9.5900,0.0000,0.0000,0.0625,0.0000,0.0000,0.0000,16382.0000,183.0000,-194.0000,0.0000,0.1786
29240073,101282.796875,21.360001,3.514515,0.2200,0.2000,9.5900,0.0625,0.1250,0.0000,0.0000,0.0000,0.0000,16382.0000,183.0000,-194.0000,0.0000,0.1547
29269681,101279.953125,21.370001,3.750891,0.2300,0.2000,9.5700,-0.0625,-0.1250,0.0000,0.0000,0.0000,0.0000,16382.0000,183.0000,-194.0000,0.0000,0.1784
29308688,101278.882812,21.360001,3.840360,0.2200,0.2100,9.5800,-0.0625,0.0000,0.0000,0.0000,0.0000,0.0000,16382.0000,183.0000,-194.0000,0.0000,0.1440
29339188,101285.648438,21.360001,3.276619,0.2000,0.2100,9.5700,-0.1250,0.0000,0.0625,0.0000,0.0000,0.0000,16382.0000,183.0000,-194.0000,0.0000,0.1386
29369360,101287.796875,21.370001,3.097692,0.2000,0.2000,9.5600,-0.1250,0.0625,0.0625,0.0000,0.0000,0.0000,16382.0000,183.0000,-194.0000,0.0000,0.0886
29399460,101278.882812,21.360001,3.840360,0.2200,0.2200,9.5700,-0.0625,0.0000,0.0000,0.0000,0.0000,0.0000,16382.0000,183.0000,-194.0000,0.0000,0.1194
29430862,101283.867188,21.370001,3.425049,0.2200,0.2000,9.5900,0.1250,0.1250,0.0000,0.0000,0.0000,0.0000,16382.0000,183.0000,-194.0000,0.0000,0.0997
29460460,101283.867188,21.370001,3.425049,0.2200,0.2000,9.5900,-0.0625,-0.0625,0.0000,0.0000,0.0000,0.0000,16382.0000,183.0000,-194.0000,0.0000,0.0991
29490030,101283.867188,21.370001,3.425049,0.2200,0.2000,9.5900,-0.0625,0.1250,0.0625,0.0000,0.0000,0.0000,16382.0000,183.0000,-194.0000,0.0000,0.0510
