timestamp,baro_pressure,baro_temperature,baro_altitude,accel_x,accel_y,accel_z,gyro_x,gyro_y,gyro_z,mag_x,mag_y,mag_z,quat_w,quat_x,quat_y,quat_z,fusion_altitude,fusion_velocity
8008901,101305.531250,21.049999,1.621155,0.2400,0.1800,9.5800,0.0625,-0.1250,0.1250,0.0000,0.0000,0.0000,16382.0000,157.0000,-207.0000,0.0000,0.1297
8041062,101294.851562,21.049999,2.510610,0.2400,0.2000,9.6000,-0.0625,-0.0625,0.0625,0.0000,0.0000,0.0000,16382.0000,157.0000,-207.0000,0.0000,0.3305
8073362,101300.921875,21.059999,2.004882,0.2400,0.1800,9.6000,0.0625,-0.0625,0.0625,0.0000,0.0000,0.0000,16382.0000,157.0000,-207.0000,0.0000,0.4909
8104156,101289.851562,21.049999,2.926901,0.2200,0.1800,9.5600,0.0625,-0.0625,0.0625,0.0000,0.0000,0.0000,16382.0000,157.0000,-207.0000,0.0000,0.7251
8134008,101288.781250,21.040001,3.015854,0.2400,0.1700,9.6000,0.0625,0.0625,0.0000,0.0000,0.0000,0.0000,16382.0000,157.0000,-207.0000,0.0000,0.9664
8164029,101289.851562,21.049999,2.926901,0.2500,0.1900,9.5700,0.0000,-0.1250,0.0625,0.0000,0.0000,0.0000,16382.0000,157.0000,-207.0000,0.0000,1.2005
8194530,101293.773438,21.049999,2.600068,0.2400,0.1800,9.5800,0.0625,0.0000,0.0000,0.0000,0.0000,0.0000,16382.0000,157.0000,-207.0000,0.0000,1.4085
8224282,101297.687500,21.049999,2.274261,0.2600,0.1700,9.5800,-0.0625,0.0000,0.0000,0.0000,0.0000,0.0000,16382.0000,157.0000,-207.0000,0.0000,1.5905
8254489,101284.859375,21.040001,3.342700,0.2500,0.1600,9.5800,-0.1250,0.1875,-0.0625,0.0000,0.0000,0.0000,16382.0000,157.0000,-207.0000,0.0000,1.8579
8284509,101297.687500,21.049999,2.274261,0.2500,0.1800,9.5500,-0.1875,0.0625,0.0000,0.0000,0.0000,0.0000,16382.0000,157.0000,-207.0000,0.0000,2.0398
8314873,101289.156250,21.059999,2.984848,0.2400,0.1900,9.5800,-0.0625,0.1250,-0.0625,0.0000,0.0000,0.0000,16382.0000,157.0000,-207.0000,0.0000,2.1165
8344727,101289.851562,21.049999,2.926901,0.2400,0.1700,9.5600,0.0000,-0.1250,0.0000,0.0000,0.0000,0.0000,16382.0000,157.0000,-207.0000,0.0000,2.0996
8374759,101297.687500,21.049999,2.274261,0.2500,0.1700,9.5600,0.0000,-0.0625,0.0000,0.0000,0.0000,0.0000,16382.0000,157.0000,-207.0000,0.0000,2.0810
8414587,101294.851562,21.049999,2.510610,0.2400,0.1800,9.5600,-0.1875,0.0625,0.0000,0.0000,0.0000,0.0000,16382.0000,157.0000,-207.0000,0.0000,1.9892
8445026,101300.921875,21.059999,2.004882,0.2400,0.1900,9.5600,-0.1250,-0.2500,-0.0625,0.0000,0.0000,0.0000,16382.0000,157.0000,-207.0000,0.0000,1.8480
8475335,101293.773438,21.049999,2.600068,0.2400,0.1900,9.5700,-0.0625,0.0000,0.0000,0.0000,0.0000,0.0000,16382.0000,157.0000,-207.0000,0.0000,1.7633
8506692,101294.851562,21.049999,2.510610,0.2300,0.1800,9.5700,0.0625,-0.1875,0.0625,0.0000,0.0000,0.0000,16382.0000,157.0000,-207.0000,0.0000,1.7041
8536228,101290.929688,21.049999,2.836932,0.2200,0.1900,9.5800,0.0000,0.0000,-0.0625,0.0000,0.0000,0.0000,16382.0000,157.0000,-207.0000,0.0000,1.7037
8565803,101290.929688,21.049999,2.836932,0.2400,0.1900,9.5600,-0.1875,-0.1250,0.0625,0.0000,0.0000,0.0000,16382.0000,157.0000,-207.0000,0.0000,1.5964
8595713,101294.851562,21.049999,2.510610,0.2500,0.1600,9.5900,-0.0625,0.1250,0.0000,0.0000,0.0000,0.0000,16382.0000,157.0000,-207.0000,0.0000,1.5698
8627031,101300.921875,21.059999,2.004882,0.2400,0.1700,9.5600,0.0625,0.1250,0.0000,0.0000,0.0000,0.0000,16382.0000,157.0000,-207.0000,0.0000,1.4317
8656607,101283.093750,21.049999,3.489607,0.2300,0.1700,9.5700,0.0000,0.0625,0.1875,0.0000,0.0000,0.0000,16382.0000,157.0000,-207.0000,0.0000,1.4182
8686190,101295.921875,21.059999,2.421153,0.2300,0.1800,9.5900,-0.1250,-0.0625,0.0625,0.0000,0.0000,0.0000,16382.0000,157.0000,-207.0000,0.0000,1.3844
8717543,101289.156250,21.059999,2.984848,0.2400,0.1900,9.5600,0.0625,0.0000,-0.0625,0.0000,0.0000,0.0000,16382.0000,157.0000,-207.0000,0.0000,1.3722
8747071,101295.921875,21.059999,2.421153,0.2200,0.1700,9.5600,-0.0625,0.0625,-0.1875,0.0000,0.0000,0.0000,16382.0000,157.0000,-207.0000,0.0000,1.3654
8776662,101289.156250,21.059999,2.984848,0.2300,0.1800,9.5600,0.0625,0.0625,-0.1875,0.0000,0.0000,0.0000,16382.0000,157.0000,-207.0000,0.0000,1.3441
8806434,101288.093750,21.059999,3.073293,0.2400,0.1900,9.6000,-0.0625,0.1875,-0.1250,0.0000,0.0000,0.0000,16382.0000,157.0000,-207.0000,0.0000,1.3389
8845891,101297.000000,21.059999,2.331696,0.2200,0.1600,9.5600,0.0000,-0.0625,-0.1250,0.0000,0.0000,0.0000,16382.0000,157.0000,-207.0000,0.0000,1.2418
8876517,101297.000000,21.059999,2.331696,0.2400,0.1900,9.5700,0.0625,0.0000,-0.0625,0.0000,0.0000,0.0000,16382.0000,157.0000,-207.0000,0.0000,1.1446
8906616,101294.851562,21.049999,2.510610,0.2300,0.1900,9.5900,0.0625,0.1875,-0.1250,0.0000,0.0000,0.0000,16382.0000,157.0000,-207.0000,0.0000,1.0944
8937959,101297.000000,21.059999,2.331696,0.2400,0.1800,9.5600,0.0000,-0.1250,0.0625,0.0000,0.0000,0.0000,16382.0000,157.0000,-207.0000,0.0000,1.0805
8967541,101280.250000,21.059999,3.726491,0.2400,0.1800,9.5700,0.0000,0.0000,-0.0625,0.0000,0.0000,0.0000,16382.0000,157.0000,-207.0000,0.0000,1.0296
8997070,101292.007812,21.059999,2.746964,0.2300,0.1800,9.5800,0.1250,0.1875,-0.0625,0.0000,0.0000,0.0000,16382.0000,157.0000,-207.0000,0.0000,1.0073
9026985,101289.156250,21.059999,2.984848,0.2300,0.1700,9.6100,-0.0625,-0.1250,0.1875,0.0000,0.0000,0.0000,16382.0000,157.0000,-207.0000,0.0000,0.9476
9058316,101293.078125,21.059999,2.658013,0.2300,0.2000,9.5700,0.0000,-0.1250,-0.0625,0.0000,0.0000,0.0000,16382.0000,157.0000,-207.0000,0.0000,0.9181
9087951,101288.781250,21.040001,3.015854,0.2300,0.1800,9.5800,-0.1250,0.0000,-0.0625,0.0000,0.0000,0.0000,16382.0000,157.0000,-207.0000,0.0000,0.8609
9117461,101289.156250,21.059999,2.984848,0.2400,0.1700,9.5700,-0.0625,-0.0625,0.1250,0.0000,0.0000,0.0000,16382.0000,157.0000,-207.0000,0.0000,0.7923
9148812,101294.851562,21.049999,2.510610,0.2300,0.1800,9.6100,0.1250,0.0625,0.0000,0.0000,0.0000,0.0000,16382.0000,157.0000,-207.0000,0.0000,0.7600
9178344,101294.851562,21.049999,2.510610,0.2500,0.1700,9.5800,-0.1875,0.1250,-0.1875,0.0000,0.0000,0.0000,16382.0000,157.0000,-207.0000,0.0000,0.7277
9207941,101293.078125,21.059999,2.658013,0.2300,0.1800,9.5600,0.0625,-0.1875,-0.0625,0.0000,0.0000,0.0000,16382.0000,157.0000,-207.0000,0.0000,0.6893
9247249,101293.078125,21.059999,2.658013,0.2500,0.1800,9.5600,0.0000,-0.1250,-0.0625,0.0000,0.0000,0.0000,16382.0000,157.0000,-207.0000,0.0000,0.6687
9277715,101292.007812,21.059999,2.746964,0.2200,0.1800,9.5700,-0.0625,-0.2500,-0.0625,0.0000,0.0000,0.0000,16382.0000,157.0000,-207.0000,0.0000,0.5159
9340979,101290.242188,21.070000,2.894370,0.2300,0.1800,9.6000,-0.1250,-0.0625,-0.0625,0.0000,0.0000,0.0000,16382.0000,157.0000,-207.0000,0.0000,0.4727
9370977,101289.156250,21.059999,2.984848,0.2500,0.1900,9.6000,0.0625,-0.0625,0.0000,0.0000,0.0000,0.0000,16382.0000,157.0000,-207.0000,0.0000,0.4130
9406724,101298.078125,21.070000,2.241732,0.2500,0.1700,9.5800,0.0000,0.1875,0.0625,0.0000,0.0000,0.0000,16382.0000,157.0000,-207.0000,0.0000,0.3265
9437997,101299.843750,21.059999,2.094844,0.2500,0.1600,9.5800,0.1250,0.0000,-0.0625,0.0000,0.0000,0.0000,16382.0000,157.0000,-207.0000,0.0000,0.1926
9468290,101297.000000,21.059999,2.331696,0.2400,0.1900,9.5700,0.0625,0.1875,-0.1250,0.0000,0.0000,0.0000,16382.0000,157.0000,-207.0000,0.0000,0.0806
9499649,101293.078125,21.059999,2.658013,0.2300,0.1800,9.5600,0.0000,-0.0625,0.0000,0.0000,0.0000,0.0000,16382.0000,157.0000,-207.0000,0.0000,0.0422
9529258,101298.078125,21.070000,2.241732,0.2600,0.1800,9.5700,-0.0625,0.1875,0.0000,0.0000,0.0000,0.0000,16382.0000,157.0000,-207.0000,0.0000,-0.0295
9558758,101290.929688,21.049999,2.836932,0.2400,0.1900,9.5500,0.1250,0.1875,0.1250,0.0000,0.0000,0.0000,16382.0000,157.0000,-207.0000,0.0000,-0.0684
9588705,101291.312500,21.070000,2.804909,0.2300,0.1800,9.5700,-0.0625,0.0000,0.0000,0.0000,0.0000,0.0000,16382.0000,157.0000,-207.0000,0.0000,-0.0774
9620085,101294.851562,21.049999,2.510610,0.2400,0.1800,9.5800,0.1875,-0.0625,-0.1250,0.0000,0.0000,0.0000,16382.0000,157.0000,-207.0000,0.0000,-0.1010
9649629,101290.242188,21.070000,2.894370,0.2600,0.1700,9.5900,-0.1250,0.0625,0.0000,0.0000,0.0000,0.0000,16382.0000,157.0000,-207.0000,0.0000,-0.1188
9679184,101302.000000,21.070000,1.914921,0.2400,0.1800,9.5900,0.0000,0.0000,0.1250,0.0000,0.0000,0.0000,16382.0000,157.0000,-207.0000,0.0000,-0.2056
9718633,101293.773438,21.049999,2.600068,0.2400,0.1900,9.5800,0.0000,-0.2500,0.1250,0.0000,0.0000,0.0000,16382.0000,157.0000,-207.0000,0.0000,-0.1614
9749056,101290.242188,21.070000,2.894370,0.2500,0.1600,9.5900,-0.0625,0.0000,0.0000,0.0000,0.0000,0.0000,16382.0000,157.0000,-207.0000,0.0000,-0.0808
9779369,101293.078125,21.059999,2.658013,0.2400,0.1700,9.5600,0.0000,-0.1250,0.0000,0.0000,0.0000,0.0000,16382.0000,157.0000,-207.0000,0.0000,-0.0493
9809403,101290.242188,21.070000,2.894370,0.2400,0.1800,9.5900,0.0000,0.0000,0.0000,0.0000,0.0000,0.0000,16382.0000,157.0000,-207.0000,0.0000,-0.0381
9840749,101297.000000,21.059999,2.331696,0.2400,0.1800,9.6000,0.1250,0.3125,0.0000,0.0000,0.0000,0.0000,16382.0000,157.0000,-207.0000,0.0000,-0.0089
9870306,101290.242188,21.070000,2.894370,0.2500,0.1700,9.5600,0.1250,0.0000,0.1250,0.0000,0.0000,0.0000,16382.0000,157.0000,-207.0000,0.0000,-0.0155
9899876,101289.156250,21.059999,2.984848,0.2400,0.1900,9.5900,0.0000,0.0000,0.0000,0.0000,0.0000,0.0000,16382.0000,157.0000,-207.0000,0.0000,0.0025
9931253,101298.773438,21.049999,2.183790,0.2400,0.1900,9.5700,-0.1250,0.1250,-0.0625,0.0000,0.0000,0.0000,16382.0000,157.0000,-207.0000,0.0000,-0.0154
9960860,101290.242188,21.070000,2.894370,0.2400,0.1600,9.5700,-0.0625,-0.1250,0.0000,0.0000,0.0000,0.0000,16382.0000,157.0000,-207.0000,0.0000,-0.0278
9990382,101293.078125,21.059999,2.658013,0.2200,0.1700,9.5600,-0.1875,-0.1875,0.0000,0.0000,0.0000,0.0000,16382.0000,157.0000,-207.0000,0.0000,0.0436
10021728,101297.000000,21.059999,2.331696,0.2200,0.1800,9.5700,-0.0625,-0.0625,0.1250,0.0000,0.0000,0.0000,16382.0000,157.0000,-207.0000,0.0000,0.0102
10051290,101302.687500,21.049999,1.857996,0.2500,0.1800,9.5800,0.0625,0.0625,0.0000,0.0000,0.0000,0.0000,16382.0000,157.0000,-207.0000,0.0000,-0.0786
10080864,101294.851562,21.049999,2.510610,0.2300,0.1700,9.5800,0.0000,0.0000,-0.0625,0.0000,0.0000,0.0000,16382.0000,157.0000,-207.0000,0.0000,-0.0933
10110404,101298.078125,21.070000,2.241732,0.2500,0.1800,9.5700,-0.0625,-0.1250,0.0000,0.0000,0.0000,0.0000,16382.0000,157.0000,-207.0000,0.0000,-0.1467
10149940,101289.156250,21.059999,2.984848,0.2500,0.1800,9.5600,-0.0625,0.0000,-0.1250,0.0000,0.0000,0.0000,16382.0000,157.0000,-207.0000,0.0000,-0.0843
10180357,101297.000000,21.059999,2.331696,0.2300,0.1700,9.6000,-0.0625,0.0000,-0.1250,0.0000,0.0000,0.0000,16382.0000,157.0000,-207.0000,0.0000,-0.1370
10210643,101295.921875,21.059999,2.421153,0.2400,0.1900,9.6100,-0.1250,-0.0625,-0.0625,0.0000,0.0000,0.0000,16382.0000,157.0000,-207.0000,0.0000,-0.2017
10242014,101293.078125,21.059999,2.658013,0.2300,0.1700,9.5900,0.0625,-0.1250,0.0000,0.0000,0.0000,0.0000,16382.0000,157.0000,-207.0000,0.0000,-0.1376
10271570,101299.148438,21.070000,2.152786,0.2300,0.1800,9.5800,0.0000,-0.1250,-0.0625,0.0000,0.0000,0.0000,16382.0000,157.0000,-207.0000,0.0000,-0.2064
10301072,101302.000000,21.070000,1.914921,0.2500,0.1700,9.5600,-0.0625,-0.1250,0.1250,0.0000,0.0000,0.0000,16382.0000,157.0000,-207.0000,0.0000,-0.2593
10330991,101289.156250,21.059999,2.984848,0.2400,0.1700,9.5500,-0.0625,-0.1875,-0.0625,0.0000,0.0000,0.0000,16382.0000,157.0000,-207.0000,0.0000,-0.2053
10362329,101297.000000,21.059999,2.331696,0.2400,0.1600,9.5700,0.0000,-0.0625,-0.1250,0.0000,0.0000,0.0000,16382.0000,157.0000,-207.0000,0.0000,-0.1449
10391934,101289.156250,21.059999,2.984848,0.2400,0.1800,9.5700,0.0625,0.0000,-0.0625,0.0000,0.0000,0.0000,16382.0000,157.0000,-207.0000,0.0000,-0.0957
10421512,101305.906250,21.070000,1.589644,0.2500,0.1800,9.5900,0.0000,-0.1250,-0.0625,0.0000,0.0000,0.0000,16382.0000,157.0000,-207.0000,0.0000,-0.1460
10452860,101299.148438,21.070000,2.152786,0.2400,0.1700,9.5800,0.0000,0.0625,0.0000,0.0000,0.0000,0.0000,16382.0000,157.0000,-207.0000,0.0000,-0.2257
10482465,101293.078125,21.059999,2.658013,0.2200,0.1800,9.5800,0.0000,0.1250,-0.0625,0.0000,0.0000,0.0000,16382.0000,157.0000,-207.0000,0.0000,-0.1960
10512011,101295.226562,21.070000,2.479096,0.2300,0.1800,9.5900,0.0000,0.0000,0.0625,0.0000,0.0000,0.0000,16382.0000,157.0000,-207.0000,0.0000,-0.1931
10551297,101289.156250,21.059999,2.984848,0.2400,0.1800,9.5600,0.0000,-0.1875,0.0625,0.0000,0.0000,0.0000,16382.0000,157.0000,-207.0000,0.0000,-0.1456
10581762,101289.156250,21.059999,2.984848,0.2300,0.1800,9.5700,0.0000,0.0625,0.0000,0.0000,0.0000,0.0000,16382.0000,157.0000,-207.0000,0.0000,-0.0672
10611895,101291.312500,21.070000,2.804909,0.2400,0.1800,9.6000,0.0000,0.0000,-0.1250,0.0000,0.0000,0.0000,16382.0000,157.0000,-207.0000,0.0000,0.0254
10641936,101298.078125,21.070000,2.241732,0.2500,0.1600,9.5700,-0.0625,0.0000,0.0000,0.0000,0.0000,0.0000,16382.0000,157.0000,-207.0000,0.0000,-0.0406
10673265,101295.226562,21.070000,2.479096,0.2400,0.1800,9.5800,0.0000,-0.0625,0.0000,0.0000,0.0000,0.0000,16382.0000,157.0000,-207.0000,0.0000,-0.0151
10702864,101298.078125,21.070000,2.241732,0.2300,0.1900,9.5700,0.0625,0.1250,-0.1250,0.0000,0.0000,0.0000,16382.0000,157.0000,-207.0000,0.0000,-0.0745
10732434,101294.156250,21.070000,2.568046,0.2200,0.1700,9.6000,0.0000,-0.0625,-0.0625,0.0000,0.0000,0.0000,16382.0000,157.0000,-207.0000,0.0000,0.0221
10763743,101293.078125,21.059999,2.658013,0.2300,0.1600,9.5800,0.0000,-0.0625,-0.0625,0.0000,0.0000,0.0000,16382.0000,157.0000,-207.0000,0.0000,0.0697
10793290,101286.320312,21.070000,3.220704,0.2400,0.1700,9.5800,-0.0625,0.0000,0.0625,0.0000,0.0000,0.0000,16382.0000,157.0000,-207.0000,0.0000,0.1147
10822833,101299.148438,21.070000,2.152786,0.2500,0.1800,9.5800,-0.1250,0.0000,0.0000,0.0000,0.0000,0.0000,16382.0000,157.0000,-207.0000,0.0000,0.0922
10852619,101296.312500,21.080000,2.388623,0.2400,0.1800,9.5600,-0.0625,-0.0625,0.0000,0.0000,0.0000,0.0000,16382.0000,157.0000,-207.0000,0.0000,0.0398
10884030,101297.000000,21.059999,2.331696,0.2400,0.1700,9.5700,-0.0625,0.0625,0.0000,0.0000,0.0000,0.0000,16382.0000,157.0000,-207.0000,0.0000,-0.0143
10922748,101282.398438,21.070000,3.547557,0.2400,0.2000,9.5600,-0.1250,-0.0625,0.0625,0.0000,0.0000,0.0000,16382.0000,157.0000,-207.0000,0.0000,0.0487
10974352,101289.156250,21.059999,2.984848,0.2200,0.2000,9.5600,-0.1250,-0.2500,0.0625,0.0000,0.0000,0.0000,16382.0000,157.0000,-207.0000,0.0000,0.1082
11012677,101297.000000,21.059999,2.331696,0.2300,0.1700,9.5900,0.0000,-0.0625,0.1250,0.0000,0.0000,0.0000,16382.0000,157.0000,-207.0000,0.0000,0.0887
11043149,101299.148438,21.070000,2.152786,0.2500,0.1800,9.5700,0.0000,-0.1250,-0.0625,0.0000,0.0000,0.0000,16382.0000,157.0000,-207.0000,0.0000,0.0834
11073243,101291.312500,21.070000,2.804909,0.2500,0.1900,9.5600,0.0625,-0.1875,-0.1250,0.0000,0.0000,0.0000,16382.0000,157.0000,-207.0000,0.0000,0.1041
11104601,101291.312500,21.070000,2.804909,0.2100,0.1800,9.5900,0.0000,0.0000,-0.1250,0.0000,0.0000,0.0000,16382.0000,157.0000,-207.0000,0.0000,0.1075
11134178,101290.242188,21.070000,2.894370,0.2400,0.1700,9.5900,-0.0625,-0.0625,0.0625,0.0000,0.0000,0.0000,16382.0000,157.0000,-207.0000,0.0000,0.0738
11163771,101298.078125,21.070000,2.241732,0.2700,0.1800,9.5800,0.0000,-0.0625,-0.0625,0.0000,0.0000,0.0000,16382.0000,157.0000,-207.0000,0.0000,0.0939
11193702,101298.078125,21.070000,2.241732,0.2200,0.1700,9.5500,-0.0625,0.0000,0.0000,0.0000,0.0000,0.0000,16382.0000,157.0000,-207.0000,0.0000,0.0846
11224923,101293.468750,21.080000,2.625482,0.2300,0.1600,9.5800,0.0625,-0.1250,0.1250,0.0000,0.0000,0.0000,16382.0000,157.0000,-207.0000,0.0000,0.1194
11254477,101295.226562,21.070000,2.479096,0.2400,0.1700,9.5500,-0.0625,-0.1875,0.1250,0.0000,0.0000,0.0000,16382.0000,157.0000,-207.0000,0.0000,0.0012
11284047,101289.156250,21.059999,2.984848,0.2400,0.1800,9.5800,0.0000,-0.1250,0.0625,0.0000,0.0000,0.0000,16382.0000,157.0000,-207.0000,0.0000,-0.0065
11315401,101290.242188,21.070000,2.894370,0.2200,0.1700,9.5500,0.0625,-0.2500,0.0625,0.0000,0.0000,0.0000,16382.0000,157.0000,-207.0000,0.0000,0.0498
11344975,101303.070312,21.070000,1.825977,0.2400,0.1800,9.5800,0.0000,0.0000,0.0000,0.0000,0.0000,0.0000,16382.0000,157.0000,-207.0000,0.0000,0.0338
11374532,101290.242188,21.070000,2.894370,0.2400,0.1900,9.5600,0.0000,-0.1250,-0.1250,0.0000,0.0000,0.0000,16382.0000,157.0000,-207.0000,0.0000,0.0427
11404344,101291.312500,21.070000,2.804909,0.2400,0.1700,9.5800,0.0000,0.0000,0.0625,0.0000,0.0000,0.0000,16382.0000,157.0000,-207.0000,0.0000,0.0332
11443846,101290.242188,21.070000,2.894370,0.2400,0.1800,9.5500,0.0625,0.0625,-0.0625,0.0000,0.0000,0.0000,16382.0000,157.0000,-207.0000,0.0000,0.0332
11474447,101295.226562,21.070000,2.479096,0.2300,0.1800,9.5700,0.0625,0.2500,0.0000,0.0000,0.0000,0.0000,16382.0000,157.0000,-207.0000,0.0000,0.0671
11504558,101306.992188,21.070000,1.499178,0.2200,0.1900,9.5600,0.0000,0.0000,0.0000,0.0000,0.0000,0.0000,16382.0000,157.0000,-207.0000,0.0000,0.0065
11535885,101296.312500,21.080000,2.388623,0.2400,0.1800,9.5900,-0.1250,0.0000,-0.0625,0.0000,0.0000,0.0000,16382.0000,157.0000,-207.0000,0.0000,-0.0070
11565507,101290.242188,21.070000,2.894370,0.2500,0.1800,9.5800,0.0000,-0.1250,0.0625,0.0000,0.0000,0.0000,16382.0000,157.0000,-207.0000,0.0000,0.0298
11595079,101299.148438,21.070000,2.152786,0.2400,0.1900,9.5800,-0.0625,0.0000,-0.0625,0.0000,0.0000,0.0000,16382.0000,157.0000,-207.0000,0.0000,-0.0499
11626385,101286.320312,21.070000,3.220704,0.2400,0.1800,9.5900,-0.0625,0.1875,0.0625,0.0000,0.0000,0.0000,16382.0000,157.0000,-207.0000,0.0000,-0.0445
11655983,101288.093750,21.059999,3.073293,0.2500,0.1800,9.5400,0.0000,0.1250,0.0000,0.0000,0.0000,0.0000,16382.0000,157.0000,-207.0000,0.0000,0.0690
11685553,101289.156250,21.059999,2.984848,0.2300,0.1800,9.5700,0.0000,-0.0625,0.0000,0.0000,0.0000,0.0000,16382.0000,157.0000,-207.0000,0.0000,0.0632
11715358,101298.078125,21.070000,2.241732,0.2300,0.1800,9.5500,0.0625,-0.0625,0.0625,0.0000,0.0000,0.0000,16382.0000,157.0000,-207.0000,0.0000,0.0217
11746726,101289.156250,21.059999,2.984848,0.2300,0.1800,9.5600,0.0000,-0.0625,-0.1250,0.0000,0.0000,0.0000,16382.0000,157.0000,-207.0000,0.0000,0.0177
11776285,101287.398438,21.070000,3.131241,0.2300,0.1800,9.5800,0.0000,0.0000,-0.1250,0.0000,0.0000,0.0000,16382.0000,157.0000,-207.0000,0.0000,0.0687
11805937,101283.476562,21.070000,3.457582,0.2400,0.1800,9.5600,0.0000,0.0000,0.0625,0.0000,0.0000,0.0000,16382.0000,157.0000,-207.0000,0.0000,0.2486
11845214,101283.476562,21.070000,3.457582,0.2300,0.1800,9.5800,0.0000,0.0000,-0.1250,0.0000,0.0000,0.0000,16382.0000,157.0000,-207.0000,0.0000,0.3294
11875685,101289.156250,21.059999,2.984848,0.2400,0.1800,9.5800,0.0625,-0.0625,-0.0625,0.0000,0.0000,0.0000,16382.0000,157.0000,-207.0000,0.0000,0.3170
11905818,101282.398438,21.070000,3.547557,0.2300,0.1700,9.5800,0.0000,-0.2500,-0.0625,0.0000,0.0000,0.0000,16382.0000,157.0000,-207.0000,0.0000,0.4452
11935862,101297.000000,21.059999,2.331696,0.2400,0.1800,9.5600,0.0000,-0.1875,0.0625,0.0000,0.0000,0.0000,16382.0000,157.0000,-207.0000,0.0000,0.3563
11967215,101295.226562,21.070000,2.479096,0.2400,0.1900,9.5800,-0.1875,-0.2500,0.0000,0.0000,0.0000,0.0000,16382.0000,157.0000,-207.0000,0.0000,0.3070
11996781,101295.226562,21.070000,2.479096,0.2300,0.1800,9.5800,0.0000,0.0000,-0.1250,0.0000,0.0000,0.0000,16382.0000,157.0000,-207.0000,0.0000,0.2387
12026368,101299.148438,21.070000,2.152786,0.2300,0.1900,9.5600,-0.0625,0.0000,0.0625,0.0000,0.0000,0.0000,16382.0000,157.0000,-207.0000,0.0000,0.2298
12057728,101291.312500,21.070000,2.804909,0.2400,0.1600,9.5600,0.0625,-0.1250,0.0625,0.0000,0.0000,0.0000,16382.0000,157.0000,-207.0000,0.0000,0.2088
12087337,101299.148438,21.070000,2.152786,0.2600,0.1800,9.5800,-0.0625,0.0625,0.0625,0.0000,0.0000,0.0000,16382.0000,157.0000,-207.0000,0.0000,0.1175
12116864,101295.226562,21.070000,2.479096,0.2500,0.1800,9.5800,-0.1250,-0.1250,0.0000,0.0000,0.0000,0.0000,16382.0000,157.0000,-207.0000,0.0000,0.0298
12148236,101289.156250,21.059999,2.984848,0.2600,0.1700,9.5800,-0.0625,-0.0625,-0.1250,0.0000,0.0000,0.0000,16382.0000,157.0000,-207.0000,0.0000,-0.0175
12177765,101298.078125,21.070000,2.241732,0.2400,0.1900,9.5800,0.1875,0.0000,-0.0625,0.0000,0.0000,0.0000,16382.0000,157.0000,-207.0000,0.0000,-0.0805
12207316,101299.148438,21.070000,2.152786,0.2300,0.1800,9.5800,0.0000,0.1875,-0.1250,0.0000,0.0000,0.0000,16382.0000,157.0000,-207.0000,0.0000,-0.2182
12236988,101295.226562,21.070000,2.479096,0.2200,0.1700,9.5500,0.0000,-0.0625,-0.0625,0.0000,0.0000,0.0000,16382.0000,157.0000,-207.0000,0.0000,-0.2035
12276435,101294.156250,21.070000,2.568046,0.2400,0.1800,9.5600,0.0000,0.0000,0.0625,0.0000,0.0000,0.0000,16382.0000,157.0000,-207.0000,0.0000,-0.2011
12307056,101294.156250,21.070000,2.568046,0.2300,0.1800,9.5700,0.1250,-0.0625,-0.0625,0.0000,0.0000,0.0000,16382.0000,157.0000,-207.0000,0.0000,-0.1922
12337106,101291.312500,21.070000,2.804909,0.2300,0.1700,9.5900,0.0625,-0.0625,0.0000,0.0000,0.0000,0.0000,16382.0000,157.0000,-207.0000,0.0000,-0.1300
12368472,101281.328125,21.059999,3.636515,0.2500,0.1800,9.5900,-0.0625,-0.0625,-0.0625,0.0000,0.0000,0.0000,16382.0000,157.0000,-207.0000,0.0000,-0.0551
12398041,101291.312500,21.070000,2.804909,0.2200,0.1800,9.5800,0.1875,-0.1250,-0.1250,0.0000,0.0000,0.0000,16382.0000,157.0000,-207.0000,0.0000,-0.0029
12427532,101299.148438,21.070000,2.152786,0.2500,0.1800,9.5800,-0.0625,-0.0625,0.0625,0.0000,0.0000,0.0000,16382.0000,157.0000,-207.0000,0.0000,-0.0309
12457489,101296.312500,21.080000,2.388623,0.2400,0.1900,9.5800,0.0625,-0.0625,-0.0625,0.0000,0.0000,0.0000,16382.0000,157.0000,-207.0000,0.0000,-0.0916
12487421,101290.242188,21.070000,2.894370,0.2200,0.1800,9.5700,0.0000,-0.1250,0.0000,0.0000,0.0000,0.0000,16382.0000,157.0000,-207.0000,0.0000,-0.0133
12547750,101290.242188,21.070000,2.894370,0.2400,0.1700,9.6100,-0.0625,-0.0625,0.0625,0.0000,0.0000,0.0000,16382.0000,157.0000,-207.0000,0.0000,0.0627
12577995,101291.312500,21.070000,2.804909,0.2400,0.1700,9.5700,0.0000,-0.0625,0.0625,0.0000,0.0000,0.0000,16382.0000,157.0000,-207.0000,0.0000,0.0858
12609168,101291.312500,21.070000,2.804909,0.2500,0.1900,9.5800,0.0000,0.1250,-0.1250,0.0000,0.0000,0.0000,16382.0000,157.0000,-207.0000,0.0000,0.0964
12638699,101293.468750,21.080000,2.625482,0.2400,0.1800,9.5500,-0.0625,-0.1250,-0.0625,0.0000,0.0000,0.0000,16382.0000,157.0000,-207.0000,0.0000,0.1058
12668324,101294.156250,21.070000,2.568046,0.2500,0.1700,9.5700,-0.0625,-0.0625,0.0000,0.0000,0.0000,0.0000,16382.0000,157.0000,-207.0000,0.0000,0.0868
12707899,101298.078125,21.070000,2.241732,0.2200,0.1600,9.5500,0.0000,-0.1250,0.0625,0.0000,0.0000,0.0000,16382.0000,157.0000,-207.0000,0.0000,-0.0396
12738336,101291.312500,21.070000,2.804909,0.2300,0.1800,9.5500,-0.0625,-0.1875,-0.0625,0.0000,0.0000,0.0000,16382.0000,157.0000,-207.0000,0.0000,-0.0509
12768406,101275.640625,21.070000,4.110296,0.2600,0.1700,9.5700,0.0000,-0.2500,-0.0625,0.0000,0.0000,0.0000,16382.0000,157.0000,-207.0000,0.0000,0.1075
12798670,101298.078125,21.070000,2.241732,0.2100,0.1800,9.5600,-0.0625,-0.1875,0.0625,0.0000,0.0000,0.0000,16382.0000,157.0000,-207.0000,0.0000,0.1005
12829928,101285.242188,21.059999,3.310676,0.2500,0.1800,9.5700,0.0000,0.0000,0.0000,0.0000,0.0000,0.0000,16382.0000,157.0000,-207.0000,0.0000,0.1255
12859553,101299.148438,21.070000,2.152786,0.2300,0.1700,9.5900,0.1250,-0.0625,-0.1250,0.0000,0.0000,0.0000,16382.0000,157.0000,-207.0000,0.0000,0.0680
12889078,101294.156250,21.070000,2.568046,0.2200,0.1800,9.5800,-0.0625,-0.0625,0.0625,0.0000,0.0000,0.0000,16382.0000,157.0000,-207.0000,0.0000,0.0508
12920447,101291.312500,21.070000,2.804909,0.2300,0.1800,9.5700,0.0000,0.2500,0.0000,0.0000,0.0000,0.0000,16382.0000,157.0000,-207.0000,0.0000,0.0312
12949998,101291.312500,21.070000,2.804909,0.2200,0.1800,9.5500,0.0000,0.1250,0.0000,0.0000,0.0000,0.0000,16382.0000,157.0000,-207.0000,0.0000,0.0510
12979553,101298.078125,21.070000,2.241732,0.2500,0.1900,9.6000,-0.1875,0.0625,0.0625,0.0000,0.0000,0.0000,16382.0000,157.0000,-207.0000,0.0000,0.0296
13010876,101290.242188,21.070000,2.894370,0.2400,0.1600,9.5600,-0.1250,0.0000,-0.0625,0.0000,0.0000,0.0000,16382.0000,157.0000,-207.0000,0.0000,0.0949
13040437,101295.226562,21.070000,2.479096,0.2300,0.1900,9.5600,-0.1250,0.1250,0.0625,0.0000,0.0000,0.0000,16382.0000,157.0000,-207.0000,0.0000,0.0623
13069995,101282.398438,21.070000,3.547557,0.2300,0.1900,9.5600,0.0000,0.1250,0.0000,0.0000,0.0000,0.0000,16382.0000,157.0000,-207.0000,0.0000,-0.0350
13099596,101290.242188,21.070000,2.894370,0.2300,0.1500,9.5600,0.0000,-0.0625,0.0625,0.0000,0.0000,0.0000,16382.0000,157.0000,-207.0000,0.0000,0.0202
13139154,101290.242188,21.070000,2.894370,0.2200,0.1700,9.5800,0.0625,-0.1250,0.0625,0.0000,0.0000,0.0000,16382.0000,157.0000,-207.0000,0.0000,-0.0214
13169597,101291.312500,21.070000,2.804909,0.2400,0.1900,9.5600,0.0625,0.1250,-0.0625,0.0000,0.0000,0.0000,16382.0000,157.0000,-207.0000,0.0000,0.0307
13199875,101291.312500,21.070000,2.804909,0.2300,0.1800,9.5900,0.0000,0.0000,0.0000,0.0000,0.0000,0.0000,16382.0000,157.0000,-207.0000,0.0000,0.0627
13231222,101291.312500,21.070000,2.804909,0.2400,0.1800,9.5600,0.0625,0.1250,-0.0625,0.0000,0.0000,0.0000,16382.0000,157.0000,-207.0000,0.0000,0.0681
13260827,101291.312500,21.070000,2.804909,0.2400,0.1800,9.5800,-0.0625,0.1250,0.0625,0.0000,0.0000,0.0000,16382.0000,157.0000,-207.0000,0.0000,0.0717
13290351,101294.156250,21.070000,2.568046,0.2400,0.1800,9.5800,0.1875,0.1875,-0.1250,0.0000,0.0000,0.0000,16382.0000,157.0000,-207.0000,0.0000,0.0978
13320232,101293.468750,21.080000,2.625482,0.2300,0.1800,9.5800,0.0000,0.1250,0.0000,0.0000,0.0000,0.0000,16382.0000,157.0000,-207.0000,0.0000,0.0781
13351505,101293.468750,21.080000,2.625482,0.2500,0.2000,9.5700,0.0000,-0.0625,0.0625,0.0000,0.0000,0.0000,16382.0000,157.0000,-207.0000,0.0000,0.1029
13381106,101301.296875,21.080000,1.973878,0.2300,0.1600,9.5600,0.1250,-0.1250,0.0625,0.0000,0.0000,0.0000,16382.0000,157.0000,-207.0000,0.0000,-0.0248
13410643,101299.148438,21.070000,2.152786,0.2500,0.1700,9.5700,0.1250,0.0625,0.0000,0.0000,0.0000,0.0000,16382.0000,157.0000,-207.0000,0.0000,-0.0729
13441986,101282.398438,21.070000,3.547557,0.2200,0.1900,9.5700,0.0625,-0.1250,0.0625,0.0000,0.0000,0.0000,16382.0000,157.0000,-207.0000,0.0000,-0.0188
13471589,101292.390625,21.080000,2.715450,0.2400,0.1700,9.5900,0.0000,-0.0625,0.0625,0.0000,0.0000,0.0000,16382.0000,157.0000,-207.0000,0.0000,-0.0111
13501157,101304.148438,21.080000,1.736017,0.2500,0.1700,9.5900,-0.0625,0.0625,0.0000,0.0000,0.0000,0.0000,16382.0000,157.0000,-207.0000,0.0000,-0.1061
13530933,101291.312500,21.070000,2.804909,0.2400,0.1800,9.5800,0.0000,-0.0625,0.0000,0.0000,0.0000,0.0000,16382.0000,157.0000,-207.0000,0.0000,-0.1126
13570416,101290.242188,21.070000,2.894370,0.2400,0.1900,9.5700,0.0625,-0.1250,0.0000,0.0000,0.0000,0.0000,16382.0000,157.0000,-207.0000,0.0000,-0.1120
13601002,101291.312500,21.070000,2.804909,0.2400,0.1500,9.5700,-0.1250,0.0625,0.0000,0.0000,0.0000,0.0000,16382.0000,157.0000,-207.0000,0.0000,-0.1013
13631135,101291.312500,21.070000,2.804909,0.2500,0.1700,9.6000,0.0000,-0.0625,-0.0625,0.0000,0.0000,0.0000,16382.0000,157.0000,-207.0000,0.0000,-0.0834
13662436,101288.468750,21.080000,3.041778,0.2300,0.1900,9.5600,-0.0625,0.1875,0.0000,0.0000,0.0000,0.0000,16382.0000,157.0000,-207.0000,0.0000,-0.0595
13692003,101292.390625,21.080000,2.715450,0.2500,0.1900,9.5700,-0.0625,-0.0625,0.0000,0.0000,0.0000,0.0000,16382.0000,157.0000,-207.0000,0.0000,0.0099
13721526,101291.312500,21.070000,2.804909,0.2500,0.1700,9.5600,-0.0625,0.0625,-0.1250,0.0000,0.0000,0.0000,16382.0000,157.0000,-207.0000,0.0000,0.0787
13752859,101293.468750,21.080000,2.625482,0.2300,0.1600,9.5800,-0.0625,0.1250,-0.1250,0.0000,0.0000,0.0000,16382.0000,157.0000,-207.0000,0.0000,-0.0212
13782412,101297.390625,21.080000,2.299167,0.2500,0.1900,9.5800,0.0000,0.1875,-0.0625,0.0000,0.0000,0.0000,16382.0000,157.0000,-207.0000,0.0000,-0.0657
13811982,101291.312500,21.070000,2.804909,0.2400,0.1800,9.6000,0.0625,-0.1875,-0.0625,0.0000,0.0000,0.0000,16382.0000,157.0000,-207.0000,0.0000,0.0346
13841859,101287.398438,21.070000,3.131241,0.2200,0.1900,9.5700,-0.1250,-0.1250,0.0000,0.0000,0.0000,0.0000,16382.0000,157.0000,-207.0000,0.0000,0.0560
13873185,101297.390625,21.080000,2.299167,0.2500,0.1600,9.6000,0.0000,0.0625,-0.0625,0.0000,0.0000,0.0000,16382.0000,157.0000,-207.0000,0.0000,0.0019
13902705,101291.312500,21.070000,2.804909,0.2400,0.1700,9.5700,0.0625,0.0625,0.0625,0.0000,0.0000,0.0000,16382.0000,157.0000,-207.0000,0.0000,0.0019
13932341,101294.539062,21.080000,2.536532,0.2500,0.1800,9.5700,0.0625,-0.0625,0.0000,0.0000,0.0000,0.0000,16382.0000,157.0000,-207.0000,0.0000,-0.0030
13971642,101283.476562,21.070000,3.457582,0.2300,0.2000,9.5900,0.0625,0.1250,0.0625,0.0000,0.0000,0.0000,16382.0000,157.0000,-207.0000,0.0000,0.0255
14002270,101292.390625,21.080000,2.715450,0.2300,0.1900,9.5900,0.1250,-0.0625,0.0000,0.0000,0.0000,0.0000,16382.0000,157.0000,-207.0000,0.0000,0.0143
14032351,101292.390625,21.080000,2.715450,0.2500,0.1700,9.5800,0.1250,-0.0625,0.1250,0.0000,0.0000,0.0000,16382.0000,157.0000,-207.0000,0.0000,-0.0012
14062513,101300.226562,21.080000,2.062823,0.2400,0.1600,9.5900,0.1250,-0.1250,0.0625,0.0000,0.0000,0.0000,16382.0000,157.0000,-207.0000,0.0000,-0.0408
14123192,101293.468750,21.080000,2.625482,0.2200,0.1800,9.5700,0.0000,-0.1250,0.1250,0.0000,0.0000,0.0000,16382.0000,157.0000,-207.0000,0.0000,-0.0028
14153268,101292.390625,21.080000,2.715450,0.2400,0.1400,9.5500,0.1250,0.1250,0.0000,0.0000,0.0000,0.0000,16382.0000,157.0000,-207.0000,0.0000,-0.0100
14182938,101295.226562,21.070000,2.479096,0.2500,0.1400,9.5900,-0.0625,-0.2500,0.1250,0.0000,0.0000,0.0000,16382.0000,157.0000,-207.0000,0.0000,-0.0687
14214085,101295.226562,21.070000,2.479096,0.2200,0.1900,9.5800,-0.0625,0.0625,0.0625,0.0000,0.0000,0.0000,16382.0000,157.0000,-207.0000,0.0000,-0.0478
14243648,101301.296875,21.080000,1.973878,0.2100,0.1900,9.5800,0.0000,-0.1875,0.1250,0.0000,0.0000,0.0000,16382.0000,157.0000,-207.0000,0.0000,-0.1190
14273211,101292.390625,21.080000,2.715450,0.2700,0.1700,9.5900,0.0625,0.1250,0.0000,0.0000,0.0000,0.0000,16382.0000,157.0000,-207.0000,0.0000,-0.1106
14304521,101284.546875,21.080000,3.368625,0.2500,0.1500,9.5700,0.0625,-0.1875,0.0625,0.0000,0.0000,0.0000,16382.0000,157.0000,-207.0000,0.0000,-0.1307
14334100,101293.468750,21.080000,2.625482,0.2200,0.1700,9.5600,-0.0625,-0.0625,-0.0625,0.0000,0.0000,0.0000,16382.0000,157.0000,-207.0000,0.0000,-0.1100
14363694,101297.390625,21.080000,2.299167,0.2400,0.1800,9.6000,-0.0625,0.0000,0.0625,0.0000,0.0000,0.0000,16382.0000,157.0000,-207.0000,0.0000,-0.1528
14393517,101292.390625,21.080000,2.715450,0.2300,0.1700,9.5800,0.0625,0.0625,-0.0625,0.0000,0.0000,0.0000,16382.0000,157.0000,-207.0000,0.0000,-0.0756
14433011,101296.312500,21.080000,2.388623,0.2400,0.1700,9.5900,0.1250,-0.0625,0.0000,0.0000,0.0000,0.0000,16382.0000,157.0000,-207.0000,0.0000,-0.1040
14463673,101291.312500,21.070000,2.804909,0.2200,0.1800,9.5900,-0.0625,-0.1250,0.0625,0.0000,0.0000,0.0000,16382.0000,157.0000,-207.0000,0.0000,-0.0998
14493849,101291.312500,21.070000,2.804909,0.2500,0.1700,9.5600,-0.0625,-0.1250,0.0625,0.0000,0.0000,0.0000,16382.0000,157.0000,-207.0000,0.0000,-0.0672
14525168,101301.296875,21.080000,1.973878,0.2500,0.1700,9.5900,-0.0625,0.0000,-0.0625,0.0000,0.0000,0.0000,16382.0000,157.0000,-207.0000,0.0000,-0.1011
14554799,101299.148438,21.070000,2.152786,0.2500,0.1700,9.6000,-0.0625,0.1875,-0.0625,0.0000,0.0000,0.0000,16382.0000,157.0000,-207.0000,0.0000,-0.0815
14584370,101292.390625,21.080000,2.715450,0.2400,0.1900,9.5800,0.0000,0.0625,0.0000,0.0000,0.0000,0.0000,16382.0000,157.0000,-207.0000,0.0000,-0.0779
14615692,101292.390625,21.080000,2.715450,0.2400,0.1900,9.5700,-0.0625,0.1875,-0.0625,0.0000,0.0000,0.0000,16382.0000,157.0000,-207.0000,0.0000,-0.1479
14645275,101293.468750,21.080000,2.625482,0.2500,0.1800,9.5800,-0.0625,0.0625,-0.1250,0.0000,0.0000,0.0000,16382.0000,157.0000,-207.0000,0.0000,-0.1295
14674855,101288.468750,21.080000,3.041778,0.2400,0.1700,9.5800,-0.0625,0.0000,0.0000,0.0000,0.0000,0.0000,16382.0000,157.0000,-207.0000,0.0000,-0.0582
14704517,101283.476562,21.070000,3.457582,0.2300,0.1700,9.6000,0.0000,-0.0625,-0.0625,0.0000,0.0000,0.0000,16382.0000,157.0000,-207.0000,0.0000,0.0048
14735876,101283.476562,21.070000,3.457582,0.2100,0.1900,9.5500,-0.0625,0.0625,0.0625,0.0000,0.0000,0.0000,16382.0000,157.0000,-207.0000,0.0000,0.0986
14765455,101293.468750,21.080000,2.625482,0.2400,0.1800,9.5700,0.0000,0.0000,-0.0625,0.0000,0.0000,0.0000,16382.0000,157.0000,-207.0000,0.0000,0.0842
14795019,101298.460938,21.080000,2.209711,0.2400,0.1800,9.5800,-0.0625,0.1250,0.0625,0.0000,0.0000,0.0000,16382.0000,157.0000,-207.0000,0.0000,0.0366
14834379,101294.539062,21.080000,2.536532,0.2200,0.1800,9.5900,-0.0625,0.0625,0.0000,0.0000,0.0000,0.0000,16382.0000,157.0000,-207.0000,0.0000,0.0983
14864872,101296.312500,21.080000,2.388623,0.2400,0.1500,9.5900,0.0000,0.0625,-0.0625,0.0000,0.0000,0.0000,16382.0000,157.0000,-207.0000,0.0000,0.1254
14894951,101302.382812,21.080000,1.883409,0.2400,0.1600,9.5700,0.0625,0.0625,-0.0625,0.0000,0.0000,0.0000,16382.0000,157.0000,-207.0000,0.0000,0.0571
14925096,101299.148438,21.070000,2.152786,0.2300,0.1900,9.5800,0.0000,0.1250,0.0000,0.0000,0.0000,0.0000,16382.0000,157.0000,-207.0000,0.0000,0.0103
14956438,101297.390625,21.080000,2.299167,0.2400,0.2000,9.5900,-0.0625,0.1875,0.0000,0.0000,0.0000,0.0000,16382.0000,157.0000,-207.0000,0.0000,-0.0289
14986028,101296.312500,21.080000,2.388623,0.2400,0.1700,9.6000,0.0000,0.1250,-0.0625,0.0000,0.0000,0.0000,16382.0000,157.0000,-207.0000,0.0000,-0.0989
15015656,101295.226562,21.070000,2.479096,0.2600,0.1400,9.5900,0.1250,0.0625,-0.0625,0.0000,0.0000,0.0000,16382.0000,157.0000,-207.0000,0.0000,-0.1754
15046967,101289.546875,21.080000,2.952316,0.2200,0.1700,9.5800,0.0625,0.0625,0.1250,0.0000,0.0000,0.0000,16382.0000,157.0000,-207.0000,0.0000,-0.2307
15076571,101292.390625,21.080000,2.715450,0.2200,0.2100,9.5800,0.0625,0.0625,0.0625,0.0000,0.0000,0.0000,16382.0000,157.0000,-207.0000,0.0000,-0.2412
15106133,101295.226562,21.070000,2.479096,0.2300,0.1900,9.6000,0.1250,0.0625,0.0000,0.0000,0.0000,0.0000,16382.0000,157.0000,-207.0000,0.0000,-0.2078
15137508,101292.390625,21.080000,2.715450,0.2400,0.1900,9.5900,0.0625,0.0625,-0.0625,0.0000,0.0000,0.0000,16382.0000,157.0000,-207.0000,0.0000,-0.1863
15167133,101288.468750,21.080000,3.041778,0.2300,0.1700,9.6100,0.1250,-0.0625,-0.0625,0.0000,0.0000,0.0000,16382.0000,157.0000,-207.0000,0.0000,-0.1257
15196659,101295.226562,21.070000,2.479096,0.2400,0.1800,9.5900,0.0000,-0.1250,0.0000,0.0000,0.0000,0.0000,16382.0000,157.0000,-207.0000,0.0000,-0.0597
15226227,101289.546875,21.080000,2.952316,0.2600,0.1700,9.5600,0.0000,-0.1250,0.0000,0.0000,0.0000,0.0000,16382.0000,157.0000,-207.0000,0.0000,0.0221
15265708,101286.703125,21.080000,3.189188,0.2500,0.1600,9.5800,0.1250,0.0000,-0.0625,0.0000,0.0000,0.0000,16382.0000,157.0000,-207.0000,0.0000,0.1016
15296187,101297.390625,21.080000,2.299167,0.2200,0.1800,9.5700,0.0625,0.0000,0.0000,0.0000,0.0000,0.0000,16382.0000,157.0000,-207.0000,0.0000,0.1028
15326363,101301.296875,21.080000,1.973878,0.2600,0.1900,9.5700,0.0625,-0.1250,0.0000,0.0000,0.0000,0.0000,16382.0000,157.0000,-207.0000,0.0000,0.0653
15357704,101280.632812,21.080000,3.694466,0.2400,0.1600,9.5800,0.0000,0.0000,0.0000,0.0000,0.0000,0.0000,16382.0000,157.0000,-207.0000,0.0000,0.1116
15387264,101297.390625,21.080000,2.299167,0.2700,0.1700,9.5600,0.0625,-0.0625,0.0625,0.0000,0.0000,0.0000,16382.0000,157.0000,-207.0000,0.0000,0.0801
15416829,101297.390625,21.080000,2.299167,0.2300,0.1900,9.6000,0.0000,0.0000,0.0625,0.0000,0.0000,0.0000,16382.0000,157.0000,-207.0000,0.0000,0.0787
15446735,101292.390625,21.080000,2.715450,0.2400,0.1800,9.5900,-0.0625,0.0625,0.1250,0.0000,0.0000,0.0000,16382.0000,157.0000,-207.0000,0.0000,0.0704
15478073,101301.296875,21.080000,1.973878,0.2700,0.1800,9.5800,-0.0625,0.0000,0.0625,0.0000,0.0000,0.0000,16382.0000,157.0000,-207.0000,0.0000,-0.0198
15507666,101292.390625,21.080000,2.715450,0.2300,0.1800,9.5700,0.0000,0.0625,-0.0625,0.0000,0.0000,0.0000,16382.0000,157.0000,-207.0000,0.0000,0.0003
15537162,101293.468750,21.080000,2.625482,0.2500,0.1800,9.5900,0.0000,0.0625,0.0625,0.0000,0.0000,0.0000,16382.0000,157.0000,-207.0000,0.0000,-0.0157
15568533,101293.468750,21.080000,2.625482,0.2500,0.1800,9.5500,0.0000,0.0000,0.1250,0.0000,0.0000,0.0000,16382.0000,157.0000,-207.0000,0.0000,-0.0703
15598088,101302.382812,21.080000,1.883409,0.2400,0.1600,9.5700,-0.0625,0.0000,0.0625,0.0000,0.0000,0.0000,16382.0000,157.0000,-207.0000,0.0000,-0.0952
15627663,101298.460938,21.080000,2.209711,0.2400,0.1900,9.5800,-0.0625,-0.1875,0.0625,0.0000,0.0000,0.0000,16382.0000,157.0000,-207.0000,0.0000,-0.0746
15696740,101295.617188,21.090000,2.446567,0.2300,0.1700,9.5700,0.0625,0.0000,0.1250,0.0000,0.0000,0.0000,16382.0000,157.0000,-207.0000,0.0000,-0.1958
15727614,101295.617188,21.090000,2.446567,0.2600,0.1900,9.5900,0.0625,0.1250,0.0000,0.0000,0.0000,0.0000,16382.0000,157.0000,-207.0000,0.0000,-0.1757
15757795,101293.468750,21.080000,2.625482,0.2300,0.1800,9.5700,0.1250,0.0625,0.1250,0.0000,0.0000,0.0000,16382.0000,157.0000,-207.0000,0.0000,-0.1460
15787812,101294.539062,21.080000,2.536532,0.2200,0.1500,9.5800,-0.1250,0.2500,0.0000,0.0000,0.0000,0.0000,16382.0000,157.0000,-207.0000,0.0000,-0.1650
15819151,101289.546875,21.080000,2.952316,0.2200,0.1600,9.5700,0.1250,-0.0625,0.1250,0.0000,0.0000,0.0000,16382.0000,157.0000,-207.0000,0.0000,-0.0868
15848708,101293.468750,21.080000,2.625482,0.2500,0.1900,9.5900,0.1250,0.0625,0.0000,0.0000,0.0000,0.0000,16382.0000,157.0000,-207.0000,0.0000,-0.0940
15878282,101293.468750,21.080000,2.625482,0.2300,0.1800,9.5700,-0.1250,0.1250,-0.0625,0.0000,0.0000,0.0000,16382.0000,157.0000,-207.0000,0.0000,-0.0791
15909615,101295.226562,21.070000,2.479096,0.2300,0.1900,9.5600,0.0000,0.1250,0.0625,0.0000,0.0000,0.0000,16382.0000,157.0000,-207.0000,0.0000,-0.0908
15939173,101293.468750,21.080000,2.625482,0.2500,0.1900,9.5800,-0.0625,0.0000,-0.0625,0.0000,0.0000,0.0000,16382.0000,157.0000,-207.0000,0.0000,-0.0231
15968722,101296.312500,21.080000,2.388623,0.2600,0.1800,9.5800,0.0000,0.0625,-0.0625,0.0000,0.0000,0.0000,16382.0000,157.0000,-207.0000,0.0000,0.0013
15998596,101285.632812,21.080000,3.278144,0.2500,0.1900,9.5900,-0.1875,0.1875,0.0000,0.0000,0.0000,0.0000,16382.0000,157.0000,-207.0000,0.0000,0.0667
16029908,101285.632812,21.080000,3.278144,0.2400,0.1900,9.5900,-0.0625,0.0625,0.0000,0.0000,0.0000,0.0000,16382.0000,157.0000,-207.0000,0.0000,0.1404
16059485,101293.468750,21.080000,2.625482,0.2600,0.1800,9.6000,-0.0625,-0.1250,0.0625,0.0000,0.0000,0.0000,16382.0000,157.0000,-207.0000,0.0000,0.1440
16089067,101285.632812,21.080000,3.278144,0.2500,0.1800,9.5900,-0.1250,0.0625,-0.1250,0.0000,0.0000,0.0000,16382.0000,157.0000,-207.0000,0.0000,0.1920
16128423,101292.390625,21.080000,2.715450,0.2400,0.1900,9.5800,-0.0625,0.0625,-0.1250,0.0000,0.0000,0.0000,16382.0000,157.0000,-207.0000,0.0000,0.1571
16158923,101285.632812,21.080000,3.278144,0.2200,0.2000,9.5800,0.0625,0.1250,0.0000,0.0000,0.0000,0.0000,16382.0000,157.0000,-207.0000,0.0000,0.2111
16189093,101293.468750,21.080000,2.625482,0.2400,0.1900,9.5800,-0.1250,-0.1875,0.0000,0.0000,0.0000,0.0000,16382.0000,157.0000,-207.0000,0.0000,0.2129
16220315,101298.460938,21.080000,2.209711,0.2400,0.1800,9.5600,0.0625,0.3750,-0.1250,0.0000,0.0000,0.0000,16382.0000,157.0000,-207.0000,0.0000,0.1943
16249877,101293.468750,21.080000,2.625482,0.2400,0.1700,9.5600,0.0625,0.0625,-0.0625,0.0000,0.0000,0.0000,16382.0000,157.0000,-207.0000,0.0000,0.2026
16279445,101301.296875,21.080000,1.973878,0.2400,0.1800,9.5700,0.0000,0.1250,0.0000,0.0000,0.0000,0.0000,16382.0000,157.0000,-207.0000,0.0000,0.1908
16309423,101294.539062,21.080000,2.536532,0.2400,0.1800,9.5600,-0.0625,-0.1250,0.0625,0.0000,0.0000,0.0000,16382.0000,157.0000,-207.0000,0.0000,0.1351
16340716,101286.703125,21.080000,3.189188,0.2300,0.1700,9.5500,0.0000,-0.1250,-0.0625,0.0000,0.0000,0.0000,16382.0000,157.0000,-207.0000,0.0000,0.1149
16370279,101293.468750,21.080000,2.625482,0.2300,0.1700,9.6000,-0.0625,0.0000,0.0000,0.0000,0.0000,0.0000,16382.0000,157.0000,-207.0000,0.0000,0.1066
16399881,101283.476562,21.070000,3.457582,0.2500,0.1700,9.5900,-0.0625,0.0000,0.0625,0.0000,0.0000,0.0000,16382.0000,157.0000,-207.0000,0.0000,0.1061
16431099,101293.468750,21.080000,2.625482,0.2400,0.1700,9.5800,0.0000,-0.0625,0.0000,0.0000,0.0000,0.0000,16382.0000,157.0000,-207.0000,0.0000,0.0924
16460723,101285.632812,21.080000,3.278144,0.2300,0.1900,9.5700,0.0000,0.1250,0.0000,0.0000,0.0000,0.0000,16382.0000,157.0000,-207.0000,0.0000,0.0645
16490244,101293.468750,21.080000,2.625482,0.2400,0.1800,9.5600,0.1250,0.1250,-0.1250,0.0000,0.0000,0.0000,16382.0000,157.0000,-207.0000,0.0000,0.0550
16520098,101289.546875,21.080000,2.952316,0.2500,0.1900,9.5900,0.0000,-0.1250,0.0000,0.0000,0.0000,0.0000,16382.0000,157.0000,-207.0000,0.0000,0.1162
16559588,101284.546875,21.080000,3.368625,0.2500,0.1600,9.5900,0.0000,0.2500,0.0000,0.0000,0.0000,0.0000,16382.0000,157.0000,-207.0000,0.0000,0.1709
16590206,101295.617188,21.090000,2.446567,0.2500,0.1700,9.5700,0.0625,0.1250,-0.0625,0.0000,0.0000,0.0000,16382.0000,157.0000,-207.0000,0.0000,0.2189
16620308,101299.148438,21.070000,2.152786,0.2400,0.1800,9.6000,-0.0625,0.1250,0.0625,0.0000,0.0000,0.0000,16382.0000,157.0000,-207.0000,0.0000,0.1965
16651650,101300.226562,21.080000,2.062823,0.2200,0.1800,9.5700,-0.1250,-0.0625,0.0000,0.0000,0.0000,0.0000,16382.0000,157.0000,-207.0000,0.0000,0.0969
16681227,101288.468750,21.080000,3.041778,0.2500,0.1800,9.5900,0.0000,0.1250,0.0000,0.0000,0.0000,0.0000,16382.0000,157.0000,-207.0000,0.0000,0.1273
16710824,101287.781250,21.090000,3.099217,0.2300,0.1800,9.5600,0.0000,0.0000,0.0000,0.0000,0.0000,0.0000,16382.0000,157.0000,-207.0000,0.0000,0.0837
16740685,101292.390625,21.080000,2.715450,0.2400,0.1800,9.5900,0.0000,0.0625,-0.0625,0.0000,0.0000,0.0000,16382.0000,157.0000,-207.0000,0.0000,0.0993
16772026,101293.468750,21.080000,2.625482,0.2300,0.1900,9.5800,-0.0625,0.1250,0.0000,0.0000,0.0000,0.0000,16382.0000,157.0000,-207.0000,0.0000,0.0311
16801606,101293.468750,21.080000,2.625482,0.2400,0.1800,9.6000,-0.0625,0.0625,-0.0625,0.0000,0.0000,0.0000,16382.0000,157.0000,-207.0000,0.0000,0.0376
16831174,101294.539062,21.080000,2.536532,0.2400,0.1700,9.5800,-0.0625,0.1250,0.0000,0.0000,0.0000,0.0000,16382.0000,157.0000,-207.0000,0.0000,0.0091
16862503,101294.539062,21.080000,2.536532,0.2200,0.1600,9.5800,0.1250,-0.0625,-0.0625,0.0000,0.0000,0.0000,16382.0000,157.0000,-207.0000,0.0000,-0.0789
16892072,101292.390625,21.080000,2.715450,0.2400,0.1800,9.5500,0.0000,0.0000,0.0000,0.0000,0.0000,0.0000,16382.0000,157.0000,-207.0000,0.0000,-0.0668
16921629,101292.390625,21.080000,2.715450,0.2300,0.1800,9.5700,0.3125,0.0000,0.0000,0.0000,0.0000,0.0000,16382.0000,157.0000,-207.0000,0.0000,0.0090
16960913,101283.476562,21.070000,3.457582,0.2300,0.1800,9.5700,0.0000,0.1250,0.0625,0.0000,0.0000,0.0000,16382.0000,157.0000,-207.0000,0.0000,0.1253
16991374,101277.789062,21.080000,3.931355,0.2400,0.1700,9.5700,0.1250,0.1875,0.0625,0.0000,0.0000,0.0000,16382.0000,157.0000,-207.0000,0.0000,0.1817
17021733,101292.390625,21.080000,2.715450,0.2400,0.1900,9.5800,0.1250,-0.0625,0.0625,0.0000,0.0000,0.0000,16382.0000,157.0000,-207.0000,0.0000,0.1433
17051713,101295.617188,21.090000,2.446567,0.2500,0.1800,9.5900,-0.0625,0.0625,-0.1250,0.0000,0.0000,0.0000,16382.0000,157.0000,-207.0000,0.0000,0.1069
17083059,101295.617188,21.090000,2.446567,0.2200,0.1700,9.5800,0.0000,0.0000,0.0000,0.0000,0.0000,0.0000,16382.0000,157.0000,-207.0000,0.0000,0.0944
17112627,101293.468750,21.080000,2.625482,0.2400,0.1700,9.5800,0.0000,-0.1250,0.0625,0.0000,0.0000,0.0000,16382.0000,157.0000,-207.0000,0.0000,0.0944
17142236,101293.468750,21.080000,2.625482,0.2300,0.1900,9.5800,0.1875,0.1250,0.0000,0.0000,0.0000,0.0000,16382.0000,157.0000,-207.0000,0.0000,0.1033
17173555,101294.539062,21.080000,2.536532,0.2600,0.1700,9.5800,0.0625,0.1250,-0.0625,0.0000,0.0000,0.0000,16382.0000,157.0000,-207.0000,0.0000,0.0903
17203127,101285.632812,21.080000,3.278144,0.2300,0.1800,9.5800,0.1250,-0.1875,-0.0625,0.0000,0.0000,0.0000,16382.0000,157.0000,-207.0000,0.0000,0.1252
17232696,101293.468750,21.080000,2.625482,0.2500,0.1400,9.6000,0.1250,0.1250,0.0625,0.0000,0.0000,0.0000,16382.0000,157.0000,-207.0000,0.0000,0.1126
17262412,101284.546875,21.080000,3.368625,0.2300,0.1800,9.5800,0.1250,-0.1250,0.0625,0.0000,0.0000,0.0000,16382.0000,157.0000,-207.0000,0.0000,0.0852
17323741,101293.468750,21.080000,2.625482,0.2500,0.1800,9.5600,-0.0625,0.0000,-0.0625,0.0000,0.0000,0.0000,16382.0000,157.0000,-207.0000,0.0000,-0.0453
17353162,101289.546875,21.080000,2.952316,0.2400,0.1600,9.5700,0.0625,-0.0625,0.0000,0.0000,0.0000,0.0000,16382.0000,157.0000,-207.0000,0.0000,-0.0300
17382779,101292.390625,21.080000,2.715450,0.2300,0.1800,9.5800,0.1875,-0.0625,0.0625,0.0000,0.0000,0.0000,16382.0000,157.0000,-207.0000,0.0000,0.0017
17422310,101293.468750,21.080000,2.625482,0.2400,0.1700,9.6000,0.0625,0.0000,0.0000,0.0000,0.0000,0.0000,16382.0000,157.0000,-207.0000,0.0000,0.0195
17452810,101293.468750,21.080000,2.625482,0.2400,0.1900,9.5900,0.0000,-0.3125,0.0000,0.0000,0.0000,0.0000,16382.0000,157.0000,-207.0000,0.0000,0.0195
17483011,101289.546875,21.080000,2.952316,0.2600,0.1900,9.5700,0.0625,0.0000,0.0000,0.0000,0.0000,0.0000,16382.0000,157.0000,-207.0000,0.0000,0.0428
17514266,101301.296875,21.080000,1.973878,0.2400,0.1800,9.5800,0.0000,0.1250,0.0000,0.0000,0.0000,0.0000,16382.0000,157.0000,-207.0000,0.0000,-0.0005
17543815,101293.468750,21.080000,2.625482,0.2400,0.1900,9.5600,0.0000,0.0625,-0.0625,0.0000,0.0000,0.0000,16382.0000,157.0000,-207.0000,0.0000,-0.0705
17573411,101297.390625,21.080000,2.299167,0.2500,0.1700,9.5800,-0.0625,0.1250,0.0000,0.0000,0.0000,0.0000,16382.0000,157.0000,-207.0000,0.0000,-0.0835
17603335,101299.148438,21.070000,2.152786,0.2600,0.1700,9.5700,0.0000,0.1250,-0.0625,0.0000,0.0000,0.0000,16382.0000,157.0000,-207.0000,0.0000,-0.1826
17634668,101301.296875,21.080000,1.973878,0.2600,0.1700,9.5900,0.0000,0.0000,0.0625,0.0000,0.0000,0.0000,16382.0000,157.0000,-207.0000,0.0000,-0.2347
17664215,101290.617188,21.080000,2.862855,0.2400,0.1800,9.5700,0.0000,0.0625,-0.0625,0.0000,0.0000,0.0000,16382.0000,157.0000,-207.0000,0.0000,-0.2354
17693824,101289.546875,21.080000,2.952316,0.2700,0.1800,9.5800,0.0000,0.1250,0.0000,0.0000,0.0000,0.0000,16382.0000,157.0000,-207.0000,0.0000,-0.2164
17725216,101289.546875,21.080000,2.952316,0.2300,0.1900,9.5900,-0.0625,0.0625,0.0000,0.0000,0.0000,0.0000,16382.0000,157.0000,-207.0000,0.0000,-0.1772
17754761,101292.390625,21.080000,2.715450,0.2500,0.1800,9.5700,-0.0625,-0.1250,-0.0625,0.0000,0.0000,0.0000,16382.0000,157.0000,-207.0000,0.0000,-0.1700
17784346,101284.546875,21.080000,3.368625,0.2500,0.1800,9.5800,-0.0625,0.0000,-0.1250,0.0000,0.0000,0.0000,16382.0000,157.0000,-207.0000,0.0000,-0.1516
17814099,101293.468750,21.080000,2.625482,0.2400,0.1600,9.5800,0.0000,0.0625,0.0625,0.0000,0.0000,0.0000,16382.0000,157.0000,-207.0000,0.0000,-0.0864
17853643,101301.296875,21.080000,1.973878,0.2700,0.1800,9.5900,-0.0625,0.1875,0.0000,0.0000,0.0000,0.0000,16382.0000,157.0000,-207.0000,0.0000,-0.1516
17884223,101295.226562,21.070000,2.479096,0.2400,0.1600,9.5700,0.0625,-0.0625,0.0625,0.0000,0.0000,0.0000,16382.0000,157.0000,-207.0000,0.0000,-0.1324
17914327,101293.468750,21.080000,2.625482,0.2300,0.1600,9.6000,0.0000,-0.1875,0.0000,0.0000,0.0000,0.0000,16382.0000,157.0000,-207.0000,0.0000,-0.0739
17945677,101291.312500,21.070000,2.804909,0.2500,0.1800,9.5900,-0.0625,-0.1875,0.0625,0.0000,0.0000,0.0000,16382.0000,157.0000,-207.0000,0.0000,0.0056
17975271,101293.468750,21.080000,2.625482,0.2400,0.1800,9.5900,0.0625,-0.0625,-0.0625,0.0000,0.0000,0.0000,16382.0000,157.0000,-207.0000,0.0000,-0.0015
18004913,101301.296875,21.080000,1.973878,0.2500,0.1800,9.5600,-0.0625,-0.1250,-0.0625,0.0000,0.0000,0.0000,16382.0000,157.0000,-207.0000,0.0000,-0.0863
18036267,101283.476562,21.070000,3.457582,0.2400,0.1800,9.5800,-0.1250,0.0000,0.0625,0.0000,0.0000,0.0000,16382.0000,157.0000,-207.0000,0.0000,-0.0393
18065850,101292.390625,21.080000,2.715450,0.2500,0.1600,9.5700,0.1250,-0.0625,-0.0625,0.0000,0.0000,0.0000,16382.0000,157.0000,-207.0000,0.0000,-0.0411
18095416,101301.296875,21.080000,1.973878,0.2400,0.1500,9.5500,0.0625,0.0000,0.0625,0.0000,0.0000,0.0000,16382.0000,157.0000,-207.0000,0.0000,-0.1610
18125113,101282.398438,21.070000,3.547557,0.2500,0.1700,9.5800,0.1875,0.0000,0.1250,0.0000,0.0000,0.0000,16382.0000,157.0000,-207.0000,0.0000,-0.0724
18156505,101303.070312,21.070000,1.825977,0.2600,0.1700,9.5900,0.0000,-0.0625,-0.0625,0.0000,0.0000,0.0000,16382.0000,157.0000,-207.0000,0.0000,-0.0748
18186071,101299.148438,21.070000,2.152786,0.2500,0.1800,9.5700,-0.1250,-0.2500,0.0625,0.0000,0.0000,0.0000,16382.0000,157.0000,-207.0000,0.0000,-0.1074
18215641,101291.312500,21.070000,2.804909,0.2300,0.1600,9.5500,-0.0625,0.0000,0.0000,0.0000,0.0000,0.0000,16382.0000,157.0000,-207.0000,0.0000,-0.1043
18254925,101300.226562,21.080000,2.062823,0.2400,0.1800,9.5500,-0.0625,0.0000,0.1250,0.0000,0.0000,0.0000,16382.0000,157.0000,-207.0000,0.0000,-0.1590
18285425,101291.312500,21.070000,2.804909,0.2400,0.1800,9.5800,-0.0625,0.0000,0.0000,0.0000,0.0000,0.0000,16382.0000,157.0000,-207.0000,0.0000,-0.1351
18315507,101299.148438,21.070000,2.152786,0.2400,0.1900,9.5700,-0.0625,0.1250,-0.0625,0.0000,0.0000,0.0000,16382.0000,157.0000,-207.0000,0.0000,-0.1060
18345750,101304.148438,21.080000,1.736017,0.2600,0.1800,9.5700,-0.0625,0.0625,-0.0625,0.0000,0.0000,0.0000,16382.0000,157.0000,-207.0000,0.0000,-0.2603
18377102,101292.390625,21.080000,2.715450,0.2400,0.1900,9.5800,0.0000,-0.1250,-0.1250,0.0000,0.0000,0.0000,16382.0000,157.0000,-207.0000,0.0000,-0.2621
18406648,101292.390625,21.080000,2.715450,0.2400,0.1800,9.5900,0.0625,-0.0625,-0.0625,0.0000,0.0000,0.0000,16382.0000,157.0000,-207.0000,0.0000,-0.1916
18436237,101294.539062,21.080000,2.536532,0.2400,0.1800,9.5500,0.1250,-0.0625,0.0000,0.0000,0.0000,0.0000,16382.0000,157.0000,-207.0000,0.0000,-0.2927
18467607,101300.226562,21.080000,2.062823,0.2400,0.2000,9.5800,-0.1875,-0.0625,0.1250,0.0000,0.0000,0.0000,16382.0000,157.0000,-207.0000,0.0000,-0.2559
18497185,101296.312500,21.080000,2.388623,0.2400,0.1800,9.5800,0.0000,0.1250,-0.0625,0.0000,0.0000,0.0000,16382.0000,157.0000,-207.0000,0.0000,-0.2258
18526751,101292.390625,21.080000,2.715450,0.2300,0.1700,9.5900,0.0625,0.0625,-0.0625,0.0000,0.0000,0.0000,16382.0000,157.0000,-207.0000,0.0000,-0.2199
18558129,101287.398438,21.070000,3.131241,0.2400,0.1700,9.5900,-0.1250,0.0625,-0.1250,0.0000,0.0000,0.0000,16382.0000,157.0000,-207.0000,0.0000,-0.0971
18587662,101293.468750,21.080000,2.625482,0.2500,0.1900,9.5800,0.1250,0.0000,-0.1250,0.0000,0.0000,0.0000,16382.0000,157.0000,-207.0000,0.0000,-0.1132
18617234,101285.632812,21.080000,3.278144,0.2300,0.1800,9.5400,0.0000,0.0625,0.0625,0.0000,0.0000,0.0000,16382.0000,157.0000,-207.0000,0.0000,-0.0173
18646803,101298.460938,21.080000,2.209711,0.2400,0.1800,9.5700,0.0625,0.0000,0.0000,0.0000,0.0000,0.0000,16382.0000,157.0000,-207.0000,0.0000,0.0348
18686254,101289.156250,21.059999,2.984848,0.2500,0.1700,9.5900,0.0000,-0.0625,0.0625,0.0000,0.0000,0.0000,16382.0000,157.0000,-207.0000,0.0000,0.0545
18716835,101292.390625,21.080000,2.715450,0.2300,0.1700,9.5700,0.0625,-0.3125,0.0000,0.0000,0.0000,0.0000,16382.0000,157.0000,-207.0000,0.0000,0.0527
18746872,101284.546875,21.080000,3.368625,0.2500,0.1800,9.6000,0.0000,-0.0625,0.0000,0.0000,0.0000,0.0000,16382.0000,157.0000,-207.0000,0.0000,0.1193
18778229,101297.390625,21.080000,2.299167,0.2500,0.1900,9.5800,0.0000,-0.1250,0.0000,0.0000,0.0000,0.0000,16382.0000,157.0000,-207.0000,0.0000,0.1625
18807857,101293.468750,21.080000,2.625482,0.2200,0.1800,9.5700,0.0625,0.0000,-0.1250,0.0000,0.0000,0.0000,16382.0000,157.0000,-207.0000,0.0000,0.1862
18837435,101300.226562,21.080000,2.062823,0.2600,0.1900,9.5600,-0.0625,0.0625,-0.0625,0.0000,0.0000,0.0000,16382.0000,157.0000,-207.0000,0.0000,0.1471
18897363,101291.312500,21.070000,2.804909,0.2300,0.1600,9.5600,-0.0625,0.0625,0.0000,0.0000,0.0000,0.0000,16382.0000,157.0000,-207.0000,0.0000,0.1108
18929057,101290.242188,21.070000,2.894370,0.2200,0.1700,9.5700,0.0000,0.0625,-0.0625,0.0000,0.0000,0.0000,16382.0000,157.0000,-207.0000,0.0000,0.1389
18958512,101291.312500,21.070000,2.804909,0.2400,0.1800,9.5700,-0.1250,0.1875,-0.1875,0.0000,0.0000,0.0000,16382.0000,157.0000,-207.0000,0.0000,0.0898
18988041,101291.312500,21.070000,2.804909,0.2500,0.1700,9.5800,0.0000,0.1875,-0.1875,0.0000,0.0000,0.0000,16382.0000,157.0000,-207.0000,0.0000,0.1457
19019435,101285.632812,21.080000,3.278144,0.2500,0.1800,9.5700,-0.1250,0.1250,0.0000,0.0000,0.0000,0.0000,16382.0000,157.0000,-207.0000,0.0000,0.1620
19049043,101295.226562,21.070000,2.479096,0.2200,0.1700,9.5800,0.0000,0.1250,0.0625,0.0000,0.0000,0.0000,16382.0000,157.0000,-207.0000,0.0000,0.1478
19078586,101293.078125,21.059999,2.658013,0.2400,0.1700,9.5900,-0.0625,0.0625,-0.0625,0.0000,0.0000,0.0000,16382.0000,157.0000,-207.0000,0.0000,0.0631
19117760,101290.242188,21.070000,2.894370,0.2400,0.1800,9.5700,0.0000,-0.1250,0.0000,0.0000,0.0000,0.0000,16382.0000,157.0000,-207.0000,0.0000,0.1172
19148066,101302.000000,21.070000,1.914921,0.2400,0.1600,9.5500,-0.1250,0.1875,0.0000,0.0000,0.0000,0.0000,16382.0000,157.0000,-207.0000,0.0000,0.0538
19178186,101298.078125,21.070000,2.241732,0.2400,0.1700,9.5800,-0.1250,0.1250,0.0625,0.0000,0.0000,0.0000,16382.0000,157.0000,-207.0000,0.0000,0.0700
19208311,101293.078125,21.059999,2.658013,0.2300,0.1800,9.5400,-0.0625,0.1875,0.0000,0.0000,0.0000,0.0000,16382.0000,157.0000,-207.0000,0.0000,0.0416
19239644,101291.312500,21.070000,2.804909,0.2200,0.1900,9.5600,0.0000,0.0000,0.0625,0.0000,0.0000,0.0000,16382.0000,157.0000,-207.0000,0.0000,0.0338
19269214,101289.156250,21.059999,2.984848,0.2400,0.1900,9.5600,0.0000,0.0625,-0.0625,0.0000,0.0000,0.0000,16382.0000,157.0000,-207.0000,0.0000,0.0511
19298840,101288.093750,21.059999,3.073293,0.2400,0.2000,9.5700,0.1250,0.1250,0.0000,0.0000,0.0000,0.0000,16382.0000,157.0000,-207.0000,0.0000,0.0756
19330165,101298.078125,21.070000,2.241732,0.2500,0.1600,9.6000,-0.0625,0.1250,-0.0625,0.0000,0.0000,0.0000,16382.0000,157.0000,-207.0000,0.0000,-0.0186
19359749,101305.906250,21.070000,1.589644,0.2400,0.1600,9.5500,0.0000,0.1250,-0.1250,0.0000,0.0000,0.0000,16382.0000,157.0000,-207.0000,0.0000,-0.0720
19389367,101291.312500,21.070000,2.804909,0.2400,0.1900,9.5700,-0.1250,-0.0625,0.0000,0.0000,0.0000,0.0000,16382.0000,157.0000,-207.0000,0.0000,-0.0609
19419074,101298.078125,21.070000,2.241732,0.2500,0.1700,9.5700,0.0625,0.0000,0.0000,0.0000,0.0000,0.0000,16382.0000,157.0000,-207.0000,0.0000,-0.1315
19450423,101293.078125,21.059999,2.658013,0.2300,0.1900,9.5600,0.0625,0.3125,-0.0625,0.0000,0.0000,0.0000,16382.0000,157.0000,-207.0000,0.0000,-0.0608
19480027,101297.000000,21.059999,2.331696,0.2500,0.1900,9.5700,0.1250,-0.0625,0.0625,0.0000,0.0000,0.0000,16382.0000,157.0000,-207.0000,0.0000,-0.0459
19509618,101297.000000,21.059999,2.331696,0.2500,0.1800,9.5600,-0.0625,-0.0625,0.0000,0.0000,0.0000,0.0000,16382.0000,157.0000,-207.0000,0.0000,-0.0691
19548918,101288.093750,21.059999,3.073293,0.2300,0.2000,9.5800,0.0000,0.0625,-0.0625,0.0000,0.0000,0.0000,16382.0000,157.0000,-207.0000,0.0000,-0.0512
19579373,101289.156250,21.059999,2.984848,0.2400,0.1900,9.5800,-0.1250,0.1250,0.0000,0.0000,0.0000,0.0000,16382.0000,157.0000,-207.0000,0.0000,-0.0714
19609527,101289.156250,21.059999,2.984848,0.2600,0.1700,9.5700,-0.0625,-0.1250,-0.0625,0.0000,0.0000,0.0000,16382.0000,157.0000,-207.0000,0.0000,-0.0708
19640789,101288.093750,21.059999,3.073293,0.2400,0.1800,9.5900,0.0625,0.0000,-0.1250,0.0000,0.0000,0.0000,16382.0000,157.0000,-207.0000,0.0000,0.0052
19670391,101289.156250,21.059999,2.984848,0.2200,0.1700,9.6000,-0.0625,-0.0625,0.0625,0.0000,0.0000,0.0000,16382.0000,157.0000,-207.0000,0.0000,0.1245
19699972,101294.851562,21.049999,2.510610,0.2400,0.1900,9.5900,-0.0625,-0.0625,0.0625,0.0000,0.0000,0.0000,16382.0000,157.0000,-207.0000,0.0000,0.1158
19729889,101296.312500,21.080000,2.388623,0.2300,0.1800,9.5900,-0.0625,0.0625,-0.0625,0.0000,0.0000,0.0000,16382.0000,157.0000,-207.0000,0.0000,0.1193
19761215,101282.398438,21.070000,3.547557,0.2400,0.1500,9.5700,-0.0625,-0.0625,-0.0625,0.0000,0.0000,0.0000,16382.0000,157.0000,-207.0000,0.0000,0.1803
19790822,101297.000000,21.059999,2.331696,0.2500,0.1900,9.5800,-0.0625,-0.1875,-0.0625,0.0000,0.0000,0.0000,16382.0000,157.0000,-207.0000,0.0000,0.1898
19820423,101293.078125,21.059999,2.658013,0.2300,0.1800,9.5800,0.0625,0.0000,0.0000,0.0000,0.0000,0.0000,16382.0000,157.0000,-207.0000,0.0000,0.2105
19851801,101297.000000,21.059999,2.331696,0.2300,0.1900,9.5800,0.0625,0.0625,0.0625,0.0000,0.0000,0.0000,16382.0000,157.0000,-207.0000,0.0000,0.1458
19881350,101289.156250,21.059999,2.984848,0.2500,0.1800,9.6000,0.0000,0.0000,-0.1250,0.0000,0.0000,0.0000,16382.0000,157.0000,-207.0000,0.0000,0.1292
19910873,101304.843750,21.059999,1.678077,0.2200,0.1800,9.5600,-0.1250,0.3125,-0.0625,0.0000,0.0000,0.0000,16382.0000,157.0000,-207.0000,0.0000,-0.0003
19940662,101294.851562,21.049999,2.510610,0.2500,0.1800,9.5700,0.0000,0.1250,-0.0625,0.0000,0.0000,0.0000,16382.0000,157.0000,-207.0000,0.0000,-0.0525
19980145,101288.093750,21.059999,3.073293,0.2500,0.1700,9.5600,0.0000,0.1875,-0.1875,0.0000,0.0000,0.0000,16382.0000,157.0000,-207.0000,0.0000,-0.0508
20010663,101289.156250,21.059999,2.984848,0.2500,0.1700,9.5800,0.0625,-0.0625,0.0000,0.0000,0.0000,0.0000,16382.0000,157.0000,-207.0000,0.0000,-0.0124
20040981,101298.078125,21.070000,2.241732,0.2500,0.1800,9.5800,-0.0625,0.1875,-0.1250,0.0000,0.0000,0.0000,16382.0000,157.0000,-207.0000,0.0000,-0.0306
20072354,101289.156250,21.059999,2.984848,0.2400,0.2000,9.5800,-0.1875,-0.0625,0.0000,0.0000,0.0000,0.0000,16382.0000,157.0000,-207.0000,0.0000,-0.0988
20101884,101298.078125,21.070000,2.241732,0.2300,0.1900,9.5800,-0.0625,0.0000,-0.1250,0.0000,0.0000,0.0000,16382.0000,157.0000,-207.0000,0.0000,-0.0984
20131448,101289.156250,21.059999,2.984848,0.2400,0.1900,9.5600,0.0000,0.0000,-0.1250,0.0000,0.0000,0.0000,16382.0000,157.0000,-207.0000,0.0000,-0.0627
20162775,101289.156250,21.059999,2.984848,0.2300,0.1900,9.5700,0.0000,0.0000,0.0000,0.0000,0.0000,0.0000,16382.0000,157.0000,-207.0000,0.0000,-0.0046
20192386,101294.156250,21.070000,2.568046,0.2400,0.1700,9.5900,-0.0625,0.0625,0.0000,0.0000,0.0000,0.0000,16382.0000,157.0000,-207.0000,0.0000,-0.0321
20222028,101297.000000,21.059999,2.331696,0.2300,0.1700,9.5800,-0.1250,0.0000,-0.1875,0.0000,0.0000,0.0000,16382.0000,157.0000,-207.0000,0.0000,0.0308
20251632,101298.078125,21.070000,2.241732,0.2200,0.1800,9.5900,0.0000,0.0625,-0.1250,0.0000,0.0000,0.0000,16382.0000,157.0000,-207.0000,0.0000,0.0188
20282953,101299.148438,21.070000,2.152786,0.2300,0.1800,9.5900,0.0000,-0.2500,0.1250,0.0000,0.0000,0.0000,16382.0000,157.0000,-207.0000,0.0000,-0.0620
20312467,101291.312500,21.070000,2.804909,0.2500,0.1800,9.5800,0.0000,0.0000,0.0625,0.0000,0.0000,0.0000,16382.0000,157.0000,-207.0000,0.0000,-0.0687
20342077,101289.156250,21.059999,2.984848,0.2300,0.1700,9.5800,-0.0625,-0.1250,-0.0625,0.0000,0.0000,0.0000,16382.0000,157.0000,-207.0000,0.0000,-0.0081
20381478,101295.226562,21.070000,2.479096,0.2300,0.1600,9.5800,0.0000,0.0000,0.0000,0.0000,0.0000,0.0000,16382.0000,157.0000,-207.0000,0.0000,-0.0558
20412008,101293.078125,21.059999,2.658013,0.2700,0.1600,9.5700,-0.1250,0.3125,0.0000,0.0000,0.0000,0.0000,16382.0000,157.0000,-207.0000,0.0000,-0.0260
20472199,101306.992188,21.070000,1.499178,0.2400,0.1700,9.5700,0.0625,0.1250,-0.0625,0.0000,0.0000,0.0000,16382.0000,157.0000,-207.0000,0.0000,-0.1485
20503957,101293.078125,21.059999,2.658013,0.2300,0.1700,9.5600,0.0000,0.1250,-0.1250,0.0000,0.0000,0.0000,16382.0000,157.0000,-207.0000,0.0000,-0.1764
20533412,101291.312500,21.070000,2.804909,0.2500,0.1900,9.6100,-0.0625,-0.0625,0.0000,0.0000,0.0000,0.0000,16382.0000,157.0000,-207.0000,0.0000,-0.1528
20562932,101283.476562,21.070000,3.457582,0.2500,0.1800,9.5800,-0.0625,0.1875,-0.0625,0.0000,0.0000,0.0000,16382.0000,157.0000,-207.0000,0.0000,-0.0532
20592690,101291.312500,21.070000,2.804909,0.2300,0.1800,9.5500,0.0000,0.0000,-0.0625,0.0000,0.0000,0.0000,16382.0000,157.0000,-207.0000,0.0000,0.0126
20623966,101290.242188,21.070000,2.894370,0.2300,0.1900,9.5700,-0.0625,0.1250,-0.1250,0.0000,0.0000,0.0000,16382.0000,157.0000,-207.0000,0.0000,0.0784
20653517,101298.078125,21.070000,2.241732,0.2300,0.1700,9.6000,-0.1250,-0.0625,-0.1250,0.0000,0.0000,0.0000,16382.0000,157.0000,-207.0000,0.0000,0.0304
20683111,101295.921875,21.059999,2.421153,0.2500,0.1700,9.5700,-0.0625,0.0625,-0.0625,0.0000,0.0000,0.0000,16382.0000,157.0000,-207.0000,0.0000,-0.0165
20714441,101290.242188,21.070000,2.894370,0.2300,0.1700,9.5900,-0.1250,0.0000,0.0000,0.0000,0.0000,0.0000,16382.0000,157.0000,-207.0000,0.0000,0.0055
20743990,101294.156250,21.070000,2.568046,0.2400,0.2000,9.6000,-0.0625,0.1875,0.0000,0.0000,0.0000,0.0000,16382.0000,157.0000,-207.0000,0.0000,-0.0101
20773582,101300.921875,21.059999,2.004882,0.2500,0.1900,9.5900,-0.2500,-0.0625,-0.0625,0.0000,0.0000,0.0000,16382.0000,157.0000,-207.0000,0.0000,0.0536
20803340,101295.226562,21.070000,2.479096,0.2300,0.1800,9.5600,0.0625,0.0000,0.0000,0.0000,0.0000,0.0000,16382.0000,157.0000,-207.0000,0.0000,0.0422
20842828,101290.242188,21.070000,2.894370,0.2500,0.1800,9.5700,-0.0625,0.0625,-0.0625,0.0000,0.0000,0.0000,16382.0000,157.0000,-207.0000,0.0000,0.0529
20873335,101298.078125,21.070000,2.241732,0.2300,0.1700,9.5800,0.0000,0.1875,-0.0625,0.0000,0.0000,0.0000,16382.0000,157.0000,-207.0000,0.0000,-0.0520
20903642,101299.148438,21.070000,2.152786,0.2200,0.1700,9.5700,-0.1250,0.0000,0.0000,0.0000,0.0000,0.0000,16382.0000,157.0000,-207.0000,0.0000,-0.1154
20934995,101298.078125,21.070000,2.241732,0.2500,0.1900,9.5900,0.0625,-0.1875,-0.1250,0.0000,0.0000,0.0000,16382.0000,157.0000,-207.0000,0.0000,-0.1938
20964579,101294.156250,21.070000,2.568046,0.2500,0.1800,9.5700,0.0625,-0.0625,-0.0625,0.0000,0.0000,0.0000,16382.0000,157.0000,-207.0000,0.0000,-0.1564
20994154,101291.312500,21.070000,2.804909,0.2300,0.1800,9.5700,0.1250,-0.1250,0.0000,0.0000,0.0000,0.0000,16382.0000,157.0000,-207.0000,0.0000,-0.1293
21025547,101297.000000,21.059999,2.331696,0.2600,0.2000,9.5800,-0.0625,-0.1875,0.0000,0.0000,0.0000,0.0000,16382.0000,157.0000,-207.0000,0.0000,-0.1790
21055067,101290.242188,21.070000,2.894370,0.2200,0.1700,9.5700,0.0625,-0.1875,0.0000,0.0000,0.0000,0.0000,16382.0000,157.0000,-207.0000,0.0000,-0.1576
21084667,101288.093750,21.059999,3.073293,0.2200,0.2000,9.5800,0.1250,0.0000,0.0000,0.0000,0.0000,0.0000,16382.0000,157.0000,-207.0000,0.0000,-0.0656
21114337,101287.007812,21.049999,3.163773,0.2500,0.1600,9.6000,0.1250,-0.0625,-0.0625,0.0000,0.0000,0.0000,16382.0000,157.0000,-207.0000,0.0000,0.0010
21145645,101293.078125,21.059999,2.658013,0.2400,0.1700,9.5800,0.0000,-0.1250,0.0625,0.0000,0.0000,0.0000,16382.0000,157.0000,-207.0000,0.0000,-0.0161
21175296,101297.000000,21.059999,2.331696,0.2300,0.1800,9.5800,0.0000,-0.0625,-0.1250,0.0000,0.0000,0.0000,16382.0000,157.0000,-207.0000,0.0000,0.0060
21204843,101290.242188,21.070000,2.894370,0.2600,0.1600,9.5600,0.0625,-0.1250,0.0625,0.0000,0.0000,0.0000,16382.0000,157.0000,-207.0000,0.0000,0.0837
21244215,101297.000000,21.059999,2.331696,0.2500,0.1900,9.5800,0.1250,0.0000,0.0000,0.0000,0.0000,0.0000,16382.0000,157.0000,-207.0000,0.0000,0.1058
21274722,101297.000000,21.059999,2.331696,0.2500,0.1700,9.5700,0.0625,0.1250,-0.0625,0.0000,0.0000,0.0000,16382.0000,157.0000,-207.0000,0.0000,0.0857
21304786,101287.007812,21.049999,3.163773,0.2600,0.1900,9.5600,0.0000,0.1875,-0.1875,0.0000,0.0000,0.0000,16382.0000,157.0000,-207.0000,0.0000,0.1061
21334896,101297.000000,21.059999,2.331696,0.2600,0.1900,9.5800,-0.1250,-0.0625,0.0000,0.0000,0.0000,0.0000,16382.0000,157.0000,-207.0000,0.0000,0.1304
21366236,101297.000000,21.059999,2.331696,0.2400,0.1900,9.5800,0.0000,0.1875,-0.0625,0.0000,0.0000,0.0000,16382.0000,157.0000,-207.0000,0.0000,0.0742
21395839,101279.171875,21.049999,3.815959,0.2300,0.1800,9.5800,0.0625,0.1875,0.0625,0.0000,0.0000,0.0000,16382.0000,157.0000,-207.0000,0.0000,0.1253
21425407,101294.156250,21.070000,2.568046,0.2300,0.1600,9.5500,0.0625,0.0000,0.0625,0.0000,0.0000,0.0000,16382.0000,157.0000,-207.0000,0.0000,0.0610
21456825,101293.078125,21.059999,2.658013,0.2500,0.1800,9.6000,0.0000,-0.0625,-0.0625,0.0000,0.0000,0.0000,16382.0000,157.0000,-207.0000,0.0000,0.0675
21486364,101299.148438,21.070000,2.152786,0.2400,0.1800,9.5600,0.0000,-0.0625,0.0000,0.0000,0.0000,0.0000,16382.0000,157.0000,-207.0000,0.0000,0.0401
21515953,101299.148438,21.070000,2.152786,0.2300,0.1700,9.5600,-0.0625,0.0000,0.0000,0.0000,0.0000,0.0000,16382.0000,157.0000,-207.0000,0.0000,-0.0269
21547348,101293.078125,21.059999,2.658013,0.2400,0.1900,9.5900,-0.1250,-0.1250,0.0625,0.0000,0.0000,0.0000,16382.0000,157.0000,-207.0000,0.0000,0.0141
21576923,101293.078125,21.059999,2.658013,0.2300,0.1700,9.5800,0.1250,-0.0625,-0.0625,0.0000,0.0000,0.0000,16382.0000,157.0000,-207.0000,0.0000,0.0532
21606470,101294.156250,21.070000,2.568046,0.2400,0.1700,9.5700,0.0000,-0.2500,0.0000,0.0000,0.0000,0.0000,16382.0000,157.0000,-207.0000,0.0000,-0.0129
21636100,101289.156250,21.059999,2.984848,0.2500,0.1800,9.5600,0.0625,-0.2500,0.0000,0.0000,0.0000,0.0000,16382.0000,157.0000,-207.0000,0.0000,0.0524
21675519,101293.078125,21.059999,2.658013,0.2400,0.1700,9.5800,0.0625,-0.0625,-0.1875,0.0000,0.0000,0.0000,16382.0000,157.0000,-207.0000,0.0000,0.0768
21706052,101300.921875,21.059999,2.004882,0.2300,0.1700,9.5700,-0.0625,0.0625,0.0625,0.0000,0.0000,0.0000,16382.0000,157.0000,-207.0000,0.0000,-0.0848
21736151,101306.992188,21.070000,1.499178,0.2200,0.1800,9.5700,0.0000,0.1875,-0.0625,0.0000,0.0000,0.0000,16382.0000,157.0000,-207.0000,0.0000,-0.1619
21767441,101290.242188,21.070000,2.894370,0.2200,0.1900,9.5700,0.1250,-0.1250,-0.0625,0.0000,0.0000,0.0000,16382.0000,157.0000,-207.0000,0.0000,-0.1448
21797039,101290.242188,21.070000,2.894370,0.2500,0.1700,9.5800,0.1250,-0.0625,0.0625,0.0000,0.0000,0.0000,16382.0000,157.0000,-207.0000,0.0000,-0.0819
21826604,101293.078125,21.059999,2.658013,0.2300,0.1800,9.5700,0.1875,-0.1875,0.0000,0.0000,0.0000,0.0000,16382.0000,157.0000,-207.0000,0.0000,-0.0397
21856502,101291.312500,21.070000,2.804909,0.2400,0.1800,9.5500,0.0000,-0.1250,0.0000,0.0000,0.0000,0.0000,16382.0000,157.0000,-207.0000,0.0000,-0.0381
21887796,101290.242188,21.070000,2.894370,0.2400,0.2000,9.6000,0.0000,0.0000,0.0000,0.0000,0.0000,0.0000,16382.0000,157.0000,-207.0000,0.0000,-0.0162
21917376,101299.148438,21.070000,2.152786,0.2500,0.1900,9.5500,-0.0625,-0.0625,0.0000,0.0000,0.0000,0.0000,16382.0000,157.0000,-207.0000,0.0000,-0.0411
21947008,101290.242188,21.070000,2.894370,0.2400,0.1900,9.5700,0.0000,0.1250,-0.1250,0.0000,0.0000,0.0000,16382.0000,157.0000,-207.0000,0.0000,-0.0585
21978355,101299.148438,21.070000,2.152786,0.2600,0.1800,9.5800,0.0000,0.0000,0.0000,0.0000,0.0000,0.0000,16382.0000,157.0000,-207.0000,0.0000,-0.0989
22007895,101289.156250,21.059999,2.984848,0.2400,0.1700,9.5800,0.0625,-0.1250,-0.0625,0.0000,0.0000,0.0000,16382.0000,157.0000,-207.0000,0.0000,-0.0306
22046858,101303.070312,21.070000,1.825977,0.2500,0.1700,9.5600,-0.0625,-0.1875,0.1250,0.0000,0.0000,0.0000,16382.0000,157.0000,-207.0000,0.0000,0.0187
22106908,101298.078125,21.070000,2.241732,0.2400,0.1900,9.5800,0.0625,-0.2500,-0.0625,0.0000,0.0000,0.0000,16382.0000,157.0000,-207.0000,0.0000,-0.0353
22137196,101281.328125,21.059999,3.636515,0.2400,0.1700,9.5700,0.0000,-0.1875,-0.1250,0.0000,0.0000,0.0000,16382.0000,157.0000,-207.0000,0.0000,0.0354
22167557,101291.312500,21.070000,2.804909,0.2400,0.1600,9.5600,0.0000,0.0000,-0.1250,0.0000,0.0000,0.0000,16382.0000,157.0000,-207.0000,0.0000,0.0500
22197686,101299.148438,21.070000,2.152786,0.2400,0.1900,9.5800,0.1875,-0.0625,-0.0625,0.0000,0.0000,0.0000,16382.0000,157.0000,-207.0000,0.0000,-0.0003
22229004,101290.242188,21.070000,2.894370,0.2400,0.1700,9.5800,0.0625,0.0000,0.0000,0.0000,0.0000,0.0000,16382.0000,157.0000,-207.0000,0.0000,-0.0134
22258588,101283.476562,21.070000,3.457582,0.2400,0.1800,9.6000,-0.0625,-0.0625,0.0000,0.0000,0.0000,0.0000,16382.0000,157.0000,-207.0000,0.0000,0.0964
22288181,101299.148438,21.070000,2.152786,0.2700,0.1800,9.5700,0.0625,0.0000,-0.1250,0.0000,0.0000,0.0000,16382.0000,157.0000,-207.0000,0.0000,0.0370
22319512,101283.476562,21.070000,3.457582,0.2300,0.1600,9.5700,0.0000,-0.0625,-0.1250,0.0000,0.0000,0.0000,16382.0000,157.0000,-207.0000,0.0000,0.1497
22349108,101287.398438,21.070000,3.131241,0.2500,0.1700,9.5800,0.0000,0.0000,0.0625,0.0000,0.0000,0.0000,16382.0000,157.0000,-207.0000,0.0000,0.1418
22378682,101283.476562,21.070000,3.457582,0.2500,0.1800,9.5800,-0.0625,0.0000,0.0625,0.0000,0.0000,0.0000,16382.0000,157.0000,-207.0000,0.0000,0.2854
22408270,101291.312500,21.070000,2.804909,0.2400,0.1600,9.5800,-0.1250,0.1875,-0.0625,0.0000,0.0000,0.0000,16382.0000,157.0000,-207.0000,0.0000,0.3435
22439635,101292.390625,21.080000,2.715450,0.2500,0.1900,9.5800,0.0000,0.0000,0.0000,0.0000,0.0000,0.0000,16382.0000,157.0000,-207.0000,0.0000,0.2420
22469216,101291.312500,21.070000,2.804909,0.2500,0.1900,9.5900,0.0625,0.0625,0.1250,0.0000,0.0000,0.0000,16382.0000,157.0000,-207.0000,0.0000,0.2289
22498865,101291.312500,21.070000,2.804909,0.2600,0.1800,9.5700,-0.0625,0.2500,0.0000,0.0000,0.0000,0.0000,16382.0000,157.0000,-207.0000,0.0000,0.2829
22538168,101298.078125,21.070000,2.241732,0.2400,0.1700,9.5900,-0.0625,-0.0625,0.0000,0.0000,0.0000,0.0000,16382.0000,157.0000,-207.0000,0.0000,0.2241
22568590,101287.398438,21.070000,3.131241,0.2400,0.1600,9.5900,0.0000,0.0000,0.0000,0.0000,0.0000,0.0000,16382.0000,157.0000,-207.0000,0.0000,0.1850
22598734,101285.632812,21.080000,3.278144,0.2200,0.1900,9.5600,0.0000,0.1875,-0.0625,0.0000,0.0000,0.0000,16382.0000,157.0000,-207.0000,0.0000,0.2786
22630138,101299.148438,21.070000,2.152786,0.2500,0.1900,9.6000,-0.0625,0.0625,0.0000,0.0000,0.0000,0.0000,16382.0000,157.0000,-207.0000,0.0000,0.1629
22659689,101296.312500,21.080000,2.388623,0.2200,0.1900,9.5700,0.0000,-0.0625,0.0625,0.0000,0.0000,0.0000,16382.0000,157.0000,-207.0000,0.0000,0.1024
22689263,101299.148438,21.070000,2.152786,0.2300,0.1800,9.5700,-0.0625,-0.1250,0.0000,0.0000,0.0000,0.0000,16382.0000,157.0000,-207.0000,0.0000,-0.0079
22719179,101290.242188,21.070000,2.894370,0.2400,0.1800,9.5800,-0.0625,0.0000,0.0625,0.0000,0.0000,0.0000,16382.0000,157.0000,-207.0000,0.0000,-0.0037
22750513,101286.320312,21.070000,3.220704,0.2300,0.2000,9.5800,0.0000,-0.1250,0.0000,0.0000,0.0000,0.0000,16382.0000,157.0000,-207.0000,0.0000,0.0291
22780119,101285.632812,21.080000,3.278144,0.2400,0.1800,9.5600,-0.0625,0.0000,0.0000,0.0000,0.0000,0.0000,16382.0000,157.0000,-207.0000,0.0000,0.0687
22809665,101290.242188,21.070000,2.894370,0.2500,0.1900,9.5300,-0.1875,0.0000,0.0625,0.0000,0.0000,0.0000,16382.0000,157.0000,-207.0000,0.0000,0.0664
22841015,101303.070312,21.070000,1.825977,0.2400,0.1700,9.5700,0.0000,0.0000,0.0625,0.0000,0.0000,0.0000,16382.0000,157.0000,-207.0000,0.0000,0.0349
22870483,101291.312500,21.070000,2.804909,0.2400,0.1900,9.5800,0.0625,0.0000,0.0625,0.0000,0.0000,0.0000,16382.0000,157.0000,-207.0000,0.0000,0.0095
22900064,101295.226562,21.070000,2.479096,0.2400,0.1600,9.5800,0.0000,0.1875,0.0000,0.0000,0.0000,0.0000,16382.0000,157.0000,-207.0000,0.0000,-0.0734
22929859,101287.398438,21.070000,3.131241,0.2400,0.1700,9.5600,-0.0625,0.2500,-0.0625,0.0000,0.0000,0.0000,16382.0000,157.0000,-207.0000,0.0000,0.0085
22969370,101287.398438,21.070000,3.131241,0.2600,0.1900,9.5700,-0.0625,0.0000,0.0000,0.0000,0.0000,0.0000,16382.0000,157.0000,-207.0000,0.0000,0.0964
22999822,101296.312500,21.080000,2.388623,0.2200,0.1900,9.5800,0.0000,0.0000,0.0625,0.0000,0.0000,0.0000,16382.0000,157.0000,-207.0000,0.0000,0.1236
23030115,101296.312500,21.080000,2.388623,0.2300,0.1900,9.5600,0.0000,0.0625,-0.0625,0.0000,0.0000,0.0000,16382.0000,157.0000,-207.0000,0.0000,0.0784
23061470,101291.312500,21.070000,2.804909,0.2300,0.1700,9.5800,0.0625,0.0000,-0.0625,0.0000,0.0000,0.0000,16382.0000,157.0000,-207.0000,0.0000,0.0238
23091051,101287.398438,21.070000,3.131241,0.2600,0.1700,9.5900,-0.0625,0.1875,-0.0625,0.0000,0.0000,0.0000,16382.0000,157.0000,-207.0000,0.0000,-0.0105
23120623,101291.312500,21.070000,2.804909,0.2400,0.1700,9.5800,0.0000,0.0625,0.1250,0.0000,0.0000,0.0000,16382.0000,157.0000,-207.0000,0.0000,-0.0223
23151981,101301.296875,21.080000,1.973878,0.2500,0.1800,9.5600,0.0625,-0.0625,0.0000,0.0000,0.0000,0.0000,16382.0000,157.0000,-207.0000,0.0000,0.0061
23181550,101296.312500,21.080000,2.388623,0.2500,0.1900,9.5600,-0.1250,0.1250,0.0000,0.0000,0.0000,0.0000,16382.0000,157.0000,-207.0000,0.0000,-0.0319
23211151,101291.312500,21.070000,2.804909,0.2600,0.1900,9.5800,-0.0625,-0.0625,0.0000,0.0000,0.0000,0.0000,16382.0000,157.0000,-207.0000,0.0000,0.0043
23240845,101289.546875,21.080000,2.952316,0.2300,0.1900,9.6000,0.0000,0.0625,0.0000,0.0000,0.0000,0.0000,16382.0000,157.0000,-207.0000,0.0000,-0.0195
23272164,101297.390625,21.080000,2.299167,0.2400,0.1700,9.5900,-0.0625,-0.1250,-0.0625,0.0000,0.0000,0.0000,16382.0000,157.0000,-207.0000,0.0000,-0.1086
23301754,101291.312500,21.070000,2.804909,0.2400,0.1800,9.6000,-0.0625,0.0000,-0.0625,0.0000,0.0000,0.0000,16382.0000,157.0000,-207.0000,0.0000,-0.0931
23331320,101291.312500,21.070000,2.804909,0.2300,0.1800,9.5800,0.0625,0.1250,-0.0625,0.0000,0.0000,0.0000,16382.0000,157.0000,-207.0000,0.0000,-0.0497
23370646,101297.000000,21.059999,2.331696,0.2400,0.1900,9.5700,0.0000,-0.1250,0.0000,0.0000,0.0000,0.0000,16382.0000,157.0000,-207.0000,0.0000,-0.0857
23401123,101290.242188,21.070000,2.894370,0.2200,0.1800,9.5600,0.0000,-0.0625,-0.0625,0.0000,0.0000,0.0000,16382.0000,157.0000,-207.0000,0.0000,-0.1141
23431428,101291.312500,21.070000,2.804909,0.2500,0.1800,9.5700,0.0625,0.1250,0.0000,0.0000,0.0000,0.0000,16382.0000,157.0000,-207.0000,0.0000,-0.1141
23461471,101291.312500,21.070000,2.804909,0.2300,0.1700,9.5700,0.0625,0.2500,0.0000,0.0000,0.0000,0.0000,16382.0000,157.0000,-207.0000,0.0000,-0.0293
23492825,101308.070312,21.080000,1.409730,0.2400,0.1800,9.5900,0.0000,0.0000,0.0625,0.0000,0.0000,0.0000,16382.0000,157.0000,-207.0000,0.0000,-0.1123
23522426,101290.242188,21.070000,2.894370,0.2300,0.1700,9.5800,0.1250,0.1875,0.0000,0.0000,0.0000,0.0000,16382.0000,157.0000,-207.0000,0.0000,-0.1033
23551986,101297.390625,21.080000,2.299167,0.2600,0.1700,9.5700,0.0000,0.1250,0.0625,0.0000,0.0000,0.0000,16382.0000,157.0000,-207.0000,0.0000,-0.1716
23583355,101288.468750,21.080000,3.041778,0.2500,0.1800,9.5700,0.0625,0.1250,-0.1250,0.0000,0.0000,0.0000,16382.0000,157.0000,-207.0000,0.0000,-0.0985
23621843,101292.390625,21.080000,2.715450,0.2500,0.1900,9.5800,0.1250,0.1250,0.0000,0.0000,0.0000,0.0000,16382.0000,157.0000,-207.0000,0.0000,-0.1252
23672209,101285.632812,21.080000,3.278144,0.2400,0.1900,9.5900,-0.0625,-0.1875,0.0625,0.0000,0.0000,0.0000,16382.0000,157.0000,-207.0000,0.0000,-0.0986
23703297,101293.468750,21.080000,2.625482,0.2500,0.1700,9.5700,0.0000,0.1875,-0.1250,0.0000,0.0000,0.0000,16382.0000,157.0000,-207.0000,0.0000,-0.0490
23732856,101287.398438,21.070000,3.131241,0.2300,0.1700,9.5600,0.0000,-0.0625,0.0000,0.0000,0.0000,0.0000,16382.0000,157.0000,-207.0000,0.0000,-0.0318
23762448,101292.390625,21.080000,2.715450,0.2300,0.1900,9.5700,-0.0625,0.0000,0.0000,0.0000,0.0000,0.0000,16382.0000,157.0000,-207.0000,0.0000,-0.0520
23792483,101292.390625,21.080000,2.715450,0.2400,0.1700,9.5800,0.0625,0.1250,0.0000,0.0000,0.0000,0.0000,16382.0000,157.0000,-207.0000,0.0000,-0.0574
23832029,101290.242188,21.070000,2.894370,0.2200,0.1500,9.5800,0.0000,-0.0625,-0.0625,0.0000,0.0000,0.0000,16382.0000,157.0000,-207.0000,0.0000,0.1023
23862556,101297.000000,21.059999,2.331696,0.2300,0.1600,9.5800,-0.0625,-0.1250,0.0625,0.0000,0.0000,0.0000,16382.0000,157.0000,-207.0000,0.0000,0.0425
23892682,101291.312500,21.070000,2.804909,0.2400,0.1700,9.6000,0.1875,0.1250,-0.1250,0.0000,0.0000,0.0000,16382.0000,157.0000,-207.0000,0.0000,0.1061
23924080,101300.226562,21.080000,2.062823,0.2400,0.1800,9.5700,0.0625,0.0625,0.1250,0.0000,0.0000,0.0000,16382.0000,157.0000,-207.0000,0.0000,0.0296
23953629,101291.312500,21.070000,2.804909,0.2200,0.2000,9.5800,-0.1250,0.0000,-0.0625,0.0000,0.0000,0.0000,16382.0000,157.0000,-207.0000,0.0000,0.0516
23983237,101284.546875,21.080000,3.368625,0.2500,0.1900,9.5700,0.0000,0.1875,0.0625,0.0000,0.0000,0.0000,16382.0000,157.0000,-207.0000,0.0000,0.0494
24013153,101291.312500,21.070000,2.804909,0.2400,0.1700,9.5800,0.0625,0.0000,0.0625,0.0000,0.0000,0.0000,16382.0000,157.0000,-207.0000,0.0000,0.0655
24044514,101285.242188,21.059999,3.310676,0.2200,0.1700,9.6000,0.0000,0.0000,0.1250,0.0000,0.0000,0.0000,16382.0000,157.0000,-207.0000,0.0000,0.0733
24074100,101297.000000,21.059999,2.331696,0.2200,0.1800,9.5600,-0.0625,0.1250,0.0000,0.0000,0.0000,0.0000,16382.0000,157.0000,-207.0000,0.0000,0.0444
24103684,101291.312500,21.070000,2.804909,0.2400,0.1900,9.5900,0.0000,0.0625,0.0625,0.0000,0.0000,0.0000,16382.0000,157.0000,-207.0000,0.0000,0.0421
24134972,101292.390625,21.080000,2.715450,0.2400,0.2000,9.5800,-0.1250,0.1250,-0.0625,0.0000,0.0000,0.0000,16382.0000,157.0000,-207.0000,0.0000,0.0325
24164594,101291.312500,21.070000,2.804909,0.2400,0.1800,9.5800,0.0625,0.0000,0.0000,0.0000,0.0000,0.0000,16382.0000,157.0000,-207.0000,0.0000,0.0893
24194208,101290.242188,21.070000,2.894370,0.2500,0.1700,9.5700,-0.0625,0.1250,-0.0625,0.0000,0.0000,0.0000,16382.0000,157.0000,-207.0000,0.0000,0.0834
24223845,101296.312500,21.080000,2.388623,0.2500,0.1600,9.6000,0.0000,0.0625,0.0625,0.0000,0.0000,0.0000,16382.0000,157.0000,-207.0000,0.0000,0.1160
24262754,101292.390625,21.080000,2.715450,0.2500,0.1900,9.5600,-0.1250,0.0625,-0.0625,0.0000,0.0000,0.0000,16382.0000,157.0000,-207.0000,0.0000,0.0958
24293777,101293.078125,21.059999,2.658013,0.2300,0.1700,9.5800,0.0000,0.1875,-0.0625,0.0000,0.0000,0.0000,16382.0000,157.0000,-207.0000,0.0000,0.0295
24324090,101289.156250,21.059999,2.984848,0.2200,0.1600,9.5800,0.0000,0.0000,0.0000,0.0000,0.0000,0.0000,16382.0000,157.0000,-207.0000,0.0000,0.0522
24355428,101295.226562,21.070000,2.479096,0.2400,0.1700,9.6000,0.0625,-0.1875,0.0000,0.0000,0.0000,0.0000,16382.0000,157.0000,-207.0000,0.0000,-0.0150
24385009,101299.148438,21.070000,2.152786,0.2400,0.1900,9.5700,0.0625,-0.0625,0.0000,0.0000,0.0000,0.0000,16382.0000,157.0000,-207.0000,0.0000,-0.0180
24414616,101296.312500,21.080000,2.388623,0.2600,0.1800,9.5700,-0.0625,-0.1875,0.0625,0.0000,0.0000,0.0000,16382.0000,157.0000,-207.0000,0.0000,-0.0709
24445962,101298.078125,21.070000,2.241732,0.2400,0.1700,9.5700,0.0625,0.0625,0.0625,0.0000,0.0000,0.0000,16382.0000,157.0000,-207.0000,0.0000,-0.1070
24475567,101290.242188,21.070000,2.894370,0.2400,0.1800,9.5600,0.1250,0.0625,0.0625,0.0000,0.0000,0.0000,16382.0000,157.0000,-207.0000,0.0000,-0.1064
24505132,101303.070312,21.070000,1.825977,0.2600,0.1800,9.5800,0.0000,0.0625,0.0625,0.0000,0.0000,0.0000,16382.0000,157.0000,-207.0000,0.0000,-0.1871
24534805,101287.398438,21.070000,3.131241,0.2500,0.1800,9.5900,0.0625,0.1250,0.0000,0.0000,0.0000,0.0000,16382.0000,157.0000,-207.0000,0.0000,-0.1129
24566157,101291.312500,21.070000,2.804909,0.2200,0.1900,9.5800,0.0000,0.0625,-0.0625,0.0000,0.0000,0.0000,16382.0000,157.0000,-207.0000,0.0000,-0.1122
24595770,101293.078125,21.059999,2.658013,0.2300,0.1800,9.5600,0.0000,-0.1250,0.0000,0.0000,0.0000,0.0000,16382.0000,157.0000,-207.0000,0.0000,-0.1176
24625310,101289.156250,21.059999,2.984848,0.2700,0.1600,9.5900,-0.0625,0.0000,0.0000,0.0000,0.0000,0.0000,16382.0000,157.0000,-207.0000,0.0000,-0.1212
24664693,101289.156250,21.059999,2.984848,0.2400,0.1700,9.5700,-0.0625,0.0625,0.1250,0.0000,0.0000,0.0000,16382.0000,157.0000,-207.0000,0.0000,-0.0677
24695173,101299.148438,21.070000,2.152786,0.2400,0.1900,9.5800,0.0625,-0.0625,0.0625,0.0000,0.0000,0.0000,16382.0000,157.0000,-207.0000,0.0000,-0.0547
24725274,101303.070312,21.070000,1.825977,0.2400,0.1900,9.5800,0.0000,-0.0625,0.0625,0.0000,0.0000,0.0000,16382.0000,157.0000,-207.0000,0.0000,-0.1080
24755370,101290.242188,21.070000,2.894370,0.2200,0.1600,9.6000,-0.0625,0.0625,-0.0625,0.0000,0.0000,0.0000,16382.0000,157.0000,-207.0000,0.0000,-0.0528
24786692,101299.148438,21.070000,2.152786,0.2300,0.1600,9.5700,0.1250,0.1250,0.0000,0.0000,0.0000,0.0000,16382.0000,157.0000,-207.0000,0.0000,-0.1140
24816297,101290.242188,21.070000,2.894370,0.2400,0.1900,9.5700,0.0625,0.0000,0.0000,0.0000,0.0000,0.0000,16382.0000,157.0000,-207.0000,0.0000,-0.0060
24845867,101298.078125,21.070000,2.241732,0.2400,0.2000,9.5800,0.0000,0.1250,0.0000,0.0000,0.0000,0.0000,16382.0000,157.0000,-207.0000,0.0000,-0.0938
24877222,101298.078125,21.070000,2.241732,0.2400,0.1800,9.5800,0.0625,0.1250,0.0000,0.0000,0.0000,0.0000,16382.0000,157.0000,-207.0000,0.0000,-0.1388
24906847,101299.148438,21.070000,2.152786,0.2400,0.1900,9.5600,0.0625,0.1250,0.0000,0.0000,0.0000,0.0000,16382.0000,157.0000,-207.0000,0.0000,-0.1763
24936424,101284.171875,21.059999,3.399633,0.2300,0.1700,9.5700,-0.1250,0.0625,0.0000,0.0000,0.0000,0.0000,16382.0000,157.0000,-207.0000,0.0000,-0.1562
24967734,101281.328125,21.059999,3.636515,0.2000,0.1900,9.5900,0.0625,0.0000,-0.1250,0.0000,0.0000,0.0000,16382.0000,157.0000,-207.0000,0.0000,-0.1059
24997326,101289.156250,21.059999,2.984848,0.2400,0.1700,9.5600,-0.1250,0.0000,-0.0625,0.0000,0.0000,0.0000,16382.0000,157.0000,-207.0000,0.0000,-0.0263
25026923,101293.078125,21.059999,2.658013,0.2500,0.1800,9.6000,0.0000,0.1875,0.0000,0.0000,0.0000,0.0000,16382.0000,157.0000,-207.0000,0.0000,0.0599
25056505,101289.156250,21.059999,2.984848,0.2300,0.1800,9.5700,0.0625,-0.1875,0.0000,0.0000,0.0000,0.0000,16382.0000,157.0000,-207.0000,0.0000,0.0374
25095949,101293.078125,21.059999,2.658013,0.2200,0.1600,9.5600,-0.1875,0.1875,-0.0625,0.0000,0.0000,0.0000,16382.0000,157.0000,-207.0000,0.0000,0.0927
25126446,101293.078125,21.059999,2.658013,0.2400,0.1800,9.5700,-0.0625,0.2500,-0.1250,0.0000,0.0000,0.0000,16382.0000,157.0000,-207.0000,0.0000,0.0619
25156607,101290.242188,21.070000,2.894370,0.2600,0.1800,9.5800,0.0625,0.1250,0.0625,0.0000,0.0000,0.0000,16382.0000,157.0000,-207.0000,0.0000,0.1301
25187955,101293.078125,21.059999,2.658013,0.2400,0.2000,9.5900,-0.0625,0.0625,-0.0625,0.0000,0.0000,0.0000,16382.0000,157.0000,-207.0000,0.0000,0.1729
25247306,101293.078125,21.059999,2.658013,0.2700,0.1700,9.5700,-0.1250,-0.2500,0.0000,0.0000,0.0000,0.0000,16382.0000,157.0000,-207.0000,0.0000,0.2358
25277349,101289.156250,21.059999,2.984848,0.2600,0.1700,9.5400,-0.0625,0.0625,-0.0625,0.0000,0.0000,0.0000,16382.0000,157.0000,-207.0000,0.0000,0.1871
25307180,101294.851562,21.049999,2.510610,0.2500,0.1700,9.5700,-0.1250,0.0000,0.0625,0.0000,0.0000,0.0000,16382.0000,157.0000,-207.0000,0.0000,0.0869
25338506,101299.148438,21.070000,2.152786,0.2300,0.2000,9.5900,-0.0625,0.0000,0.0000,0.0000,0.0000,0.0000,16382.0000,157.0000,-207.0000,0.0000,0.0150
25368103,101287.007812,21.049999,3.163773,0.2200,0.1900,9.5800,0.0000,0.1250,0.0625,0.0000,0.0000,0.0000,16382.0000,157.0000,-207.0000,0.0000,0.0566
25397682,101293.078125,21.059999,2.658013,0.2400,0.1600,9.5700,-0.0625,0.2500,0.0000,0.0000,0.0000,0.0000,16382.0000,157.0000,-207.0000,0.0000,0.0286
25429056,101297.000000,21.059999,2.331696,0.2300,0.1900,9.5600,0.1250,-0.1250,0.0000,0.0000,0.0000,0.0000,16382.0000,157.0000,-207.0000,0.0000,-0.0040
25458579,101297.000000,21.059999,2.331696,0.2400,0.1900,9.5800,0.1250,0.0000,0.0000,0.0000,0.0000,0.0000,16382.0000,157.0000,-207.0000,0.0000,-0.0272
25488132,101290.242188,21.070000,2.894370,0.2400,0.1700,9.5700,0.0625,0.0000,0.0000,0.0000,0.0000,0.0000,16382.0000,157.0000,-207.0000,0.0000,-0.0438
25527425,101298.078125,21.070000,2.241732,0.2300,0.1600,9.5800,0.0000,-0.0625,0.0000,0.0000,0.0000,0.0000,16382.0000,157.0000,-207.0000,0.0000,-0.0742
25557760,101295.226562,21.070000,2.479096,0.2500,0.2000,9.5900,0.0000,-0.1875,0.0000,0.0000,0.0000,0.0000,16382.0000,157.0000,-207.0000,0.0000,-0.0743
25587971,101288.093750,21.059999,3.073293,0.2500,0.2000,9.5700,0.1250,-0.1250,0.1250,0.0000,0.0000,0.0000,16382.0000,157.0000,-207.0000,0.0000,-0.0708
25618052,101294.156250,21.070000,2.568046,0.2400,0.1700,9.5800,0.0000,0.0000,0.0625,0.0000,0.0000,0.0000,16382.0000,157.0000,-207.0000,0.0000,-0.0502
25649403,101295.226562,21.070000,2.479096,0.2400,0.1700,9.5600,0.0625,0.0625,-0.1250,0.0000,0.0000,0.0000,16382.0000,157.0000,-207.0000,0.0000,-0.0205
25679005,101286.320312,21.070000,3.220704,0.2300,0.1700,9.5900,0.0000,-0.0625,-0.0625,0.0000,0.0000,0.0000,16382.0000,157.0000,-207.0000,0.0000,-0.0231
25708606,101289.156250,21.059999,2.984848,0.2300,0.1800,9.5700,0.0625,0.0625,-0.0625,0.0000,0.0000,0.0000,16382.0000,157.0000,-207.0000,0.0000,0.0042
25739986,101294.156250,21.070000,2.568046,0.2300,0.1900,9.5600,0.1250,-0.1875,0.0000,0.0000,0.0000,0.0000,16382.0000,157.0000,-207.0000,0.0000,0.0325
25769560,101291.312500,21.070000,2.804909,0.2500,0.1800,9.5900,0.0000,-0.1250,0.0625,0.0000,0.0000,0.0000,16382.0000,157.0000,-207.0000,0.0000,0.0817
25799053,101293.078125,21.059999,2.658013,0.2400,0.1800,9.5700,-0.0625,0.0625,0.0000,0.0000,0.0000,0.0000,16382.0000,157.0000,-207.0000,0.0000,0.0526
25828858,101293.078125,21.059999,2.658013,0.2200,0.1700,9.5700,0.1875,0.0000,0.0625,0.0000,0.0000,0.0000,16382.0000,157.0000,-207.0000,0.0000,0.0954
25860209,101297.000000,21.059999,2.331696,0.2300,0.1800,9.5700,0.0000,0.0000,-0.0625,0.0000,0.0000,0.0000,16382.0000,157.0000,-207.0000,0.0000,0.0872
25889760,101293.078125,21.059999,2.658013,0.2300,0.1900,9.5400,0.0625,0.0625,-0.1250,0.0000,0.0000,0.0000,16382.0000,157.0000,-207.0000,0.0000,0.0522
25919337,101293.078125,21.059999,2.658013,0.2300,0.1700,9.5700,-0.0625,0.1875,0.0625,0.0000,0.0000,0.0000,16382.0000,157.0000,-207.0000,0.0000,0.0576
25958712,101290.242188,21.070000,2.894370,0.2400,0.1800,9.5500,0.0000,0.0625,0.0000,0.0000,0.0000,0.0000,16382.0000,157.0000,-207.0000,0.0000,0.0843
25989160,101289.156250,21.059999,2.984848,0.2400,0.1800,9.5800,-0.0625,0.1875,0.0625,0.0000,0.0000,0.0000,16382.0000,157.0000,-207.0000,0.0000,0.0488
26019209,101285.242188,21.059999,3.310676,0.2300,0.1800,9.5800,-0.1250,0.1875,0.0000,0.0000,0.0000,0.0000,16382.0000,157.0000,-207.0000,0.0000,0.0600
26050535,101297.000000,21.059999,2.331696,0.2300,0.1900,9.5800,0.0000,0.0000,0.1250,0.0000,0.0000,0.0000,16382.0000,157.0000,-207.0000,0.0000,0.0476
26080116,101297.000000,21.059999,2.331696,0.2400,0.1600,9.5800,-0.0625,0.0000,0.1250,0.0000,0.0000,0.0000,16382.0000,157.0000,-207.0000,0.0000,-0.0098
26109700,101293.078125,21.059999,2.658013,0.2600,0.1800,9.5400,-0.0625,-0.1250,-0.0625,0.0000,0.0000,0.0000,16382.0000,157.0000,-207.0000,0.0000,-0.0003
26139641,101290.242188,21.070000,2.894370,0.2400,0.1800,9.5900,0.0000,0.1250,0.0000,0.0000,0.0000,0.0000,16382.0000,157.0000,-207.0000,0.0000,0.0215
26170994,101298.078125,21.070000,2.241732,0.2300,0.1700,9.5800,-0.0625,-0.0625,-0.0625,0.0000,0.0000,0.0000,16382.0000,157.0000,-207.0000,0.0000,0.0208
26200584,101297.000000,21.059999,2.331696,0.2300,0.1900,9.6000,0.1875,0.3125,-0.0625,0.0000,0.0000,0.0000,16382.0000,157.0000,-207.0000,0.0000,0.0013
26230186,101289.156250,21.059999,2.984848,0.2400,0.1700,9.5700,-0.1875,-0.0625,0.0000,0.0000,0.0000,0.0000,16382.0000,157.0000,-207.0000,0.0000,0.0340
26261561,101281.328125,21.059999,3.636515,0.2200,0.1800,9.5900,0.0000,-0.0625,-0.0625,0.0000,0.0000,0.0000,16382.0000,157.0000,-207.0000,0.0000,0.0785
26291138,101290.929688,21.049999,2.836932,0.2400,0.2000,9.5800,-0.0625,0.0000,0.0000,0.0000,0.0000,0.0000,16382.0000,157.0000,-207.0000,0.0000,0.0435
26320719,101298.078125,21.070000,2.241732,0.2500,0.1900,9.5900,-0.1875,0.0000,0.0000,0.0000,0.0000,0.0000,16382.0000,157.0000,-207.0000,0.0000,-0.0504
26350492,101287.007812,21.049999,3.163773,0.2500,0.1800,9.5800,-0.0625,-0.0625,-0.0625,0.0000,0.0000,0.0000,16382.0000,157.0000,-207.0000,0.0000,0.0126
26389987,101298.078125,21.070000,2.241732,0.2500,0.1800,9.5600,0.0625,0.0625,0.0000,0.0000,0.0000,0.0000,16382.0000,157.0000,-207.0000,0.0000,0.0167
26420437,101300.921875,21.059999,2.004882,0.2500,0.1400,9.5700,-0.0625,-0.0625,-0.0625,0.0000,0.0000,0.0000,16382.0000,157.0000,-207.0000,0.0000,-0.0439
26450712,101294.156250,21.070000,2.568046,0.2500,0.1600,9.5900,0.0625,-0.0625,0.0000,0.0000,0.0000,0.0000,16382.0000,157.0000,-207.0000,0.0000,-0.0830
26482059,101305.906250,21.070000,1.589644,0.2500,0.2100,9.5800,-0.1250,-0.0625,0.0625,0.0000,0.0000,0.0000,16382.0000,157.0000,-207.0000,0.0000,-0.1370
26511661,101281.328125,21.059999,3.636515,0.2200,0.2000,9.5600,-0.1250,0.1875,-0.0625,0.0000,0.0000,0.0000,16382.0000,157.0000,-207.0000,0.0000,-0.0113
26541296,101285.242188,21.059999,3.310676,0.2400,0.1900,9.5800,-0.0625,-0.1250,-0.1250,0.0000,0.0000,0.0000,16382.0000,157.0000,-207.0000,0.0000,0.0278
26572620,101295.226562,21.070000,2.479096,0.2900,0.1500,9.6500,-0.1250,-0.1875,-0.0625,0.0000,0.0000,0.0000,16382.0000,157.0000,-207.0000,0.0000,-0.0778
26602243,101289.156250,21.059999,2.984848,0.2400,0.1200,9.5000,0.0625,0.0000,0.0000,0.0000,0.0000,0.0000,16382.0000,157.0000,-207.0000,0.0000,-0.0695
26631758,101286.320312,21.070000,3.220704,0.2600,0.2000,9.5500,0.0000,-0.3750,0.0625,0.0000,0.0000,0.0000,16382.0000,157.0000,-207.0000,0.0000,0.0237
26661435,101288.093750,21.059999,3.073293,0.2500,0.1800,9.5800,-0.1250,-0.3125,0.0000,0.0000,0.0000,0.0000,16382.0000,157.0000,-207.0000,0.0000,0.0063
26692803,101303.070312,21.070000,1.825977,0.2000,0.1800,9.5800,-0.0625,0.0000,0.0625,0.0000,0.0000,0.0000,16382.0000,157.0000,-207.0000,0.0000,-0.0186
26722399,101285.242188,21.059999,3.310676,0.2000,0.2000,9.5500,-0.0625,-0.1875,-0.0625,0.0000,0.0000,0.0000,16382.0000,157.0000,-207.0000,0.0000,0.1036
26752001,101294.156250,21.070000,2.568046,0.2700,0.1900,9.5800,0.0625,0.0000,-0.0625,0.0000,0.0000,0.0000,16382.0000,157.0000,-207.0000,0.0000,0.1054
26821337,101299.148438,21.070000,2.152786,0.2200,0.1300,9.6000,-0.1250,0.0625,-0.1250,0.0000,0.0000,0.0000,16382.0000,157.0000,-207.0000,0.0000,0.1718
26851921,101287.007812,21.049999,3.163773,0.2700,0.2400,9.6000,-0.0625,-0.1250,0.1875,0.0000,0.0000,0.0000,16382.0000,157.0000,-207.0000,0.0000,0.1210
26882096,101294.851562,21.049999,2.510610,0.2600,0.2900,9.6400,0.0000,-0.1875,0.1250,0.0000,0.0000,0.0000,16382.0000,157.0000,-207.0000,0.0000,0.0410
26912101,101289.156250,21.059999,2.984848,0.2300,0.1300,9.5900,0.0625,-0.0625,-0.1875,0.0000,0.0000,0.0000,16382.0000,157.0000,-207.0000,0.0000,0.0749
26943386,101289.156250,21.059999,2.984848,0.1800,0.0900,9.5700,0.0000,-0.2500,-0.0625,0.0000,0.0000,0.0000,16382.0000,157.0000,-207.0000,0.0000,0.0785
26972997,101289.156250,21.059999,2.984848,0.2300,0.1500,9.6000,-0.0625,0.0625,0.2500,0.0000,0.0000,0.0000,16382.0000,157.0000,-207.0000,0.0000,0.0484
27002528,101294.156250,21.070000,2.568046,0.2600,0.2700,9.5800,0.0000,-0.1250,0.0000,0.0000,0.0000,0.0000,16382.0000,157.0000,-207.0000,0.0000,-0.0069
27033959,101295.226562,21.070000,2.479096,0.2700,0.1700,9.5800,-0.0625,0.1250,-0.2500,0.0000,0.0000,0.0000,16382.0000,157.0000,-207.0000,0.0000,0.0555
27063432,101299.148438,21.070000,2.152786,0.2200,0.0700,9.5900,0.0625,0.0625,-0.0625,0.0000,0.0000,0.0000,16382.0000,157.0000,-207.0000,0.0000,-0.0455
27093047,101291.312500,21.070000,2.804909,0.2300,0.1900,9.6100,0.0000,0.1250,0.1875,0.0000,0.0000,0.0000,16382.0000,157.0000,-207.0000,0.0000,-0.0331
27124476,101289.156250,21.059999,2.984848,0.2500,0.2200,9.6100,-0.0625,-0.0625,0.1250,0.0000,0.0000,0.0000,16382.0000,157.0000,-207.0000,0.0000,0.0400
27154058,101299.148438,21.070000,2.152786,0.2700,0.1700,9.5800,0.0625,0.0625,-0.1250,0.0000,0.0000,0.0000,16382.0000,157.0000,-207.0000,0.0000,-0.0426
27183645,101291.312500,21.070000,2.804909,0.2700,0.0700,9.5600,0.0000,0.0000,0.1250,0.0000,0.0000,0.0000,16382.0000,157.0000,-207.0000,0.0000,-0.0180
27213253,101291.312500,21.070000,2.804909,0.1800,0.2200,9.6100,0.1250,0.3750,0.0625,0.0000,0.0000,0.0000,16382.0000,157.0000,-207.0000,0.0000,-0.0425
27252784,101303.070312,21.070000,1.825977,0.2400,0.2800,9.5500,0.0625,0.0625,-0.0625,0.0000,0.0000,0.0000,16382.0000,157.0000,-207.0000,0.0000,-0.1305
27283303,101298.078125,21.070000,2.241732,0.2800,0.0100,9.5300,-0.0625,0.0000,-0.2500,0.0000,0.0000,0.0000,16382.0000,157.0000,-207.0000,0.0000,-0.1899
27313528,101303.070312,21.070000,1.825977,0.2400,0.0300,9.5600,-0.1875,-0.0625,-0.0625,0.0000,0.0000,0.0000,16382.0000,157.0000,-207.0000,0.0000,-0.2493
27344885,101285.242188,21.059999,3.310676,0.2000,0.2300,9.6000,-0.0625,0.0625,0.1250,0.0000,0.0000,0.0000,16382.0000,157.0000,-207.0000,0.0000,-0.1762
27374470,101291.312500,21.070000,2.804909,0.2700,0.2500,9.5900,-0.0625,-0.1250,-0.0625,0.0000,0.0000,0.0000,16382.0000,157.0000,-207.0000,0.0000,-0.1140
27404057,101288.468750,21.080000,3.041778,0.2700,0.1400,9.5600,-0.0625,0.0000,-0.1875,0.0000,0.0000,0.0000,16382.0000,157.0000,-207.0000,0.0000,-0.0979
27435400,101299.148438,21.070000,2.152786,0.2200,0.0600,9.5800,0.1250,-0.1250,-0.0625,0.0000,0.0000,0.0000,16382.0000,157.0000,-207.0000,0.0000,-0.1776
27464975,101291.312500,21.070000,2.804909,0.2000,0.1900,9.5900,-0.0625,0.0000,0.2500,0.0000,0.0000,0.0000,16382.0000,157.0000,-207.0000,0.0000,-0.1153
27494586,101298.078125,21.070000,2.241732,0.2800,0.3000,9.5900,0.0625,-0.0625,0.0000,0.0000,0.0000,0.0000,16382.0000,157.0000,-207.0000,0.0000,-0.1633
27524175,101282.398438,21.070000,3.547557,0.2900,0.1400,9.5800,0.0625,-0.0625,-0.0625,0.0000,0.0000,0.0000,16382.0000,157.0000,-207.0000,0.0000,-0.1021
27555539,101293.078125,21.059999,2.658013,0.2200,0.0400,9.5600,0.0000,-0.1875,0.0000,0.0000,0.0000,0.0000,16382.0000,157.0000,-207.0000,0.0000,-0.0124
27585154,101290.242188,21.070000,2.894370,0.2100,0.1400,9.5500,0.0625,0.0625,0.2500,0.0000,0.0000,0.0000,16382.0000,157.0000,-207.0000,0.0000,0.0612
27614734,101287.007812,21.049999,3.163773,0.1900,0.2600,9.5600,0.0000,0.0000,0.2500,0.0000,0.0000,0.0000,16382.0000,157.0000,-207.0000,0.0000,0.1784
27654109,101294.156250,21.070000,2.568046,0.2900,0.1700,9.6000,-0.1250,0.0000,-0.0625,0.0000,0.0000,0.0000,16382.0000,157.0000,-207.0000,0.0000,0.0994
27684565,101299.148438,21.070000,2.152786,0.2300,0.0400,9.5600,-0.0625,-0.1875,0.0625,0.0000,0.0000,0.0000,16382.0000,157.0000,-207.0000,0.0000,0.0443
27714680,101303.070312,21.070000,1.825977,0.2200,0.1800,9.5400,0.0000,0.0000,0.2500,0.0000,0.0000,0.0000,16382.0000,157.0000,-207.0000,0.0000,-0.0559
27744861,101294.156250,21.070000,2.568046,0.2400,0.2700,9.5800,0.1875,-0.1250,0.0625,0.0000,0.0000,0.0000,16382.0000,157.0000,-207.0000,0.0000,-0.0209
27776219,101288.093750,21.059999,3.073293,0.2600,0.1800,9.5700,-0.0625,-0.1875,-0.0625,0.0000,0.0000,0.0000,16382.0000,157.0000,-207.0000,0.0000,-0.0089
27805751,101295.226562,21.070000,2.479096,0.1900,0.0600,9.3600,0.0625,-0.1875,0.0000,0.0000,0.0000,0.0000,16382.0000,157.0000,-207.0000,0.0000,0.0249
27835362,101290.242188,21.070000,2.894370,0.3100,0.0700,9.2700,0.0625,-0.3750,0.3125,0.0000,0.0000,0.0000,16382.0000,157.0000,-207.0000,0.0000,-0.0256
27866764,101291.312500,21.070000,2.804909,0.1800,0.2600,9.3400,-0.0625,-0.3125,0.2500,0.0000,0.0000,0.0000,16382.0000,157.0000,-207.0000,0.0000,-0.0102
27896330,101293.078125,21.059999,2.658013,0.2800,0.2700,9.4900,-0.1250,-0.2500,-0.0625,0.0000,0.0000,0.0000,16382.0000,157.0000,-207.0000,0.0000,-0.0422
27925989,101295.226562,21.070000,2.479096,0.2200,0.1100,9.4900,0.0625,-0.0625,-0.1875,0.0000,0.0000,0.0000,16382.0000,157.0000,-207.0000,0.0000,-0.0970
27957339,101287.398438,21.070000,3.131241,0.2900,0.0700,9.5700,0.0000,0.1875,0.0000,0.0000,0.0000,0.0000,16382.0000,157.0000,-207.0000,0.0000,-0.0584
27986884,101294.156250,21.070000,2.568046,0.2300,0.1900,9.6000,-0.0625,0.0625,0.1250,0.0000,0.0000,0.0000,16382.0000,157.0000,-207.0000,0.0000,-0.0282
28016467,101299.148438,21.070000,2.152786,0.2700,0.2200,9.5400,0.0000,-0.0625,0.0000,0.0000,0.0000,0.0000,16382.0000,157.0000,-207.0000,0.0000,0.0128
28046056,101298.078125,21.070000,2.241732,0.2200,0.1400,9.5900,0.0625,-0.0625,0.1250,0.0000,0.0000,0.0000,16382.0000,157.0000,-207.0000,0.0000,-0.0329
28085391,101291.312500,21.070000,2.804909,0.2100,0.1600,9.5500,-0.1250,0.0000,-0.0625,0.0000,0.0000,0.0000,16382.0000,157.0000,-207.0000,0.0000,-0.0431
28115873,101291.312500,21.070000,2.804909,0.2200,0.2100,9.5900,-0.0625,0.0000,-0.0625,0.0000,0.0000,0.0000,16382.0000,157.0000,-207.0000,0.0000,-0.0004
28145997,101290.242188,21.070000,2.894370,0.2700,0.2000,9.5800,0.0000,0.0625,-0.0625,0.0000,0.0000,0.0000,16382.0000,157.0000,-207.0000,0.0000,-0.0087
28177368,101287.398438,21.070000,3.131241,0.2300,0.1000,9.5500,-0.0625,-0.1250,-0.0625,0.0000,0.0000,0.0000,16382.0000,157.0000,-207.0000,0.0000,0.0210
28206970,101291.312500,21.070000,2.804909,0.2400,0.1100,9.5600,0.1250,0.0625,0.0000,0.0000,0.0000,0.0000,16382.0000,157.0000,-207.0000,0.0000,0.0440
28236432,101289.156250,21.059999,2.984848,0.2200,0.1700,9.5600,0.1250,0.2500,0.1250,0.0000,0.0000,0.0000,16382.0000,157.0000,-207.0000,0.0000,0.0964
28266408,101296.312500,21.080000,2.388623,0.2800,0.2200,9.5500,0.0000,-0.1250,0.0625,0.0000,0.0000,0.0000,16382.0000,157.0000,-207.0000,0.0000,0.0109
28297817,101299.148438,21.070000,2.152786,0.2200,0.1300,9.5500,-0.0625,0.0625,0.0625,0.0000,0.0000,0.0000,16382.0000,157.0000,-207.0000,0.0000,-0.0075
28327261,101295.226562,21.070000,2.479096,0.2400,0.1200,9.5300,0.0000,0.0000,-0.1250,0.0000,0.0000,0.0000,16382.0000,157.0000,-207.0000,0.0000,0.0269
28356872,101299.148438,21.070000,2.152786,0.2000,0.2000,9.5500,-0.0625,-0.0625,0.1875,0.0000,0.0000,0.0000,16382.0000,157.0000,-207.0000,0.0000,0.0180
28396887,101294.156250,21.070000,2.568046,0.2600,0.2300,9.5700,0.0000,-0.0625,0.0000,0.0000,0.0000,0.0000,16382.0000,157.0000,-207.0000,0.0000,0.0062
28448248,101302.000000,21.070000,1.914921,0.2400,0.1000,9.5600,0.0000,0.0625,-0.1250,0.0000,0.0000,0.0000,16382.0000,157.0000,-207.0000,0.0000,-0.0708
28477697,101291.312500,21.070000,2.804909,0.2200,0.1600,9.5800,-0.0625,0.0000,0.0625,0.0000,0.0000,0.0000,16382.0000,157.0000,-207.0000,0.0000,-0.0762
28516847,101289.156250,21.059999,2.984848,0.2700,0.2100,9.5900,0.0625,-0.1250,-0.1250,0.0000,0.0000,0.0000,16382.0000,157.0000,-207.0000,0.0000,-0.0908
28547174,101281.328125,21.059999,3.636515,0.3000,0.1400,9.5700,-0.0625,-0.2500,-0.0625,0.0000,0.0000,0.0000,16382.0000,157.0000,-207.0000,0.0000,-0.0207
28577354,101291.312500,21.070000,2.804909,0.2200,0.1600,9.5900,0.0000,-0.2500,0.0000,0.0000,0.0000,0.0000,16382.0000,157.0000,-207.0000,0.0000,-0.0434
28607483,101297.000000,21.059999,2.331696,0.2100,0.2200,9.6000,0.0000,0.0625,0.0625,0.0000,0.0000,0.0000,16382.0000,157.0000,-207.0000,0.0000,-0.0462
28638814,101298.078125,21.070000,2.241732,0.3100,0.1600,9.5800,0.0625,-0.1250,-0.1250,0.0000,0.0000,0.0000,16382.0000,157.0000,-207.0000,0.0000,-0.0391
28668348,101305.906250,21.070000,1.589644,0.2900,0.0900,9.5800,-0.0625,-0.0625,-0.1250,0.0000,0.0000,0.0000,16382.0000,157.0000,-207.0000,0.0000,-0.1037
28697970,101290.242188,21.070000,2.894370,0.2200,0.1900,9.5800,0.0000,0.0000,0.1875,0.0000,0.0000,0.0000,16382.0000,157.0000,-207.0000,0.0000,-0.0277
28729341,101294.156250,21.070000,2.568046,0.2000,0.2400,9.5900,-0.0625,0.0000,0.0000,0.0000,0.0000,0.0000,16382.0000,157.0000,-207.0000,0.0000,-0.0360
28758920,101293.078125,21.059999,2.658013,0.3100,0.1400,9.5900,-0.0625,0.1875,-0.2500,0.0000,0.0000,0.0000,16382.0000,157.0000,-207.0000,0.0000,0.0412
28788530,101297.000000,21.059999,2.331696,0.2600,0.0700,9.5700,0.0625,0.0000,0.0625,0.0000,0.0000,0.0000,16382.0000,157.0000,-207.0000,0.0000,0.0034
28818179,101294.156250,21.070000,2.568046,0.2100,0.2100,9.5800,0.0625,0.0625,0.0625,0.0000,0.0000,0.0000,16382.0000,157.0000,-207.0000,0.0000,-0.0532
28849627,101290.242188,21.070000,2.894370,0.2200,0.2200,9.6000,-0.0625,-0.0625,0.0000,0.0000,0.0000,0.0000,16382.0000,157.0000,-207.0000,0.0000,-0.1404
28879196,101283.093750,21.049999,3.489607,0.2600,0.1600,9.5700,-0.1250,0.1875,-0.1875,0.0000,0.0000,0.0000,16382.0000,157.0000,-207.0000,0.0000,-0.1052
28908807,101297.000000,21.059999,2.331696,0.2700,0.1000,9.6000,-0.1250,0.0000,0.0000,0.0000,0.0000,0.0000,16382.0000,157.0000,-207.0000,0.0000,-0.0857
28947977,101294.156250,21.070000,2.568046,0.2100,0.2000,9.5800,-0.0625,0.0625,0.0625,0.0000,0.0000,0.0000,16382.0000,157.0000,-207.0000,0.0000,-0.0483
28978442,101293.078125,21.059999,2.658013,0.2100,0.2000,9.5800,-0.0625,0.0000,0.0000,0.0000,0.0000,0.0000,16382.0000,157.0000,-207.0000,0.0000,0.0662
29008673,101294.156250,21.070000,2.568046,0.2400,0.1600,9.5900,0.0000,-0.3125,0.1250,0.0000,0.0000,0.0000,16382.0000,157.0000,-207.0000,0.0000,0.0253
29040013,101300.226562,21.080000,2.062823,0.2400,0.1500,9.5700,-0.0625,0.0000,-0.0625,0.0000,0.0000,0.0000,16382.0000,157.0000,-207.0000,0.0000,-0.0104
29069657,101293.078125,21.059999,2.658013,0.2300,0.1900,9.6000,-0.0625,0.1250,0.1250,0.0000,0.0000,0.0000,16382.0000,157.0000,-207.0000,0.0000,-0.0187
29099195,101297.000000,21.059999,2.331696,0.2200,0.2000,9.5800,0.0000,0.0625,0.0625,0.0000,0.0000,0.0000,16382.0000,157.0000,-207.0000,0.0000,0.0056
29129082,101293.078125,21.059999,2.658013,0.2400,0.1700,9.6000,0.0000,0.1250,-0.0625,0.0000,0.0000,0.0000,16382.0000,157.0000,-207.0000,0.0000,0.0146
29160472,101289.156250,21.059999,2.984848,0.2600,0.1400,9.5700,0.0000,-0.1875,0.0625,0.0000,0.0000,0.0000,16382.0000,157.0000,-207.0000,0.0000,0.0218
29190072,101299.148438,21.070000,2.152786,0.2300,0.2000,9.5800,-0.0625,0.0000,0.0000,0.0000,0.0000,0.0000,16382.0000,157.0000,-207.0000,0.0000,-0.0916
29219602,101290.242188,21.070000,2.894370,0.2300,0.1800,9.5600,0.1250,-0.0625,-0.1250,0.0000,0.0000,0.0000,16382.0000,157.0000,-207.0000,0.0000,-0.0419
29251004,101298.078125,21.070000,2.241732,0.2600,0.1500,9.5700,0.0000,-0.1250,-0.0625,0.0000,0.0000,0.0000,16382.0000,157.0000,-207.0000,0.0000,-0.0763
29280566,101290.242188,21.070000,2.894370,0.2600,0.1700,9.5500,0.0625,0.0625,-0.0625,0.0000,0.0000,0.0000,16382.0000,157.0000,-207.0000,0.0000,-0.0740
29310150,101291.312500,21.070000,2.804909,0.2300,0.1900,9.5600,0.0000,-0.1250,0.0625,0.0000,0.0000,0.0000,16382.0000,157.0000,-207.0000,0.0000,-0.0551
29339807,101289.156250,21.059999,2.984848,0.2200,0.1700,9.5500,0.0000,-0.1875,0.0000,0.0000,0.0000,0.0000,16382.0000,157.0000,-207.0000,0.0000,0.0389
29379258,101296.312500,21.080000,2.388623,0.2700,0.1700,9.6000,0.0625,0.1250,0.0625,0.0000,0.0000,0.0000,16382.0000,157.0000,-207.0000,0.0000,0.0138
29409763,101295.226562,21.070000,2.479096,0.2300,0.1800,9.5500,0.0000,0.0000,0.0625,0.0000,0.0000,0.0000,16382.0000,157.0000,-207.0000,0.0000,0.0368
29440116,101294.156250,21.070000,2.568046,0.2000,0.1800,9.5700,-0.0625,-0.4375,0.1250,0.0000,0.0000,0.0000,16382.0000,157.0000,-207.0000,0.0000,0.0325
29471492,101291.312500,21.070000,2.804909,0.2400,0.1900,9.5600,-0.1250,0.0625,0.0000,0.0000,0.0000,0.0000,16382.0000,157.0000,-207.0000,0.0000,0.0116
29501086,101294.156250,21.070000,2.568046,0.2500,0.1800,9.5700,-0.1250,-0.0625,0.0625,0.0000,0.0000,0.0000,16382.0000,157.0000,-207.0000,0.0000,0.0514
29530706,101287.007812,21.049999,3.163773,0.2600,0.1700,9.5700,0.0000,0.0000,-0.0625,0.0000,0.0000,0.0000,16382.0000,157.0000,-207.0000,0.0000,0.0777
29562081,101293.468750,21.080000,2.625482,0.2300,0.1900,9.5500,-0.0625,-0.0625,0.1250,0.0000,0.0000,0.0000,16382.0000,157.0000,-207.0000,0.0000,0.1149
29591679,101290.242188,21.070000,2.894370,0.2300,0.1900,9.5500,-0.0625,0.0625,0.0625,0.0000,0.0000,0.0000,16382.0000,157.0000,-207.0000,0.0000,0.1000
29621291,101290.242188,21.070000,2.894370,0.2300,0.1800,9.6000,0.0000,0.0625,0.0000,0.0000,0.0000,0.0000,16382.0000,157.0000,-207.0000,0.0000,0.0959
29650870,101290.242188,21.070000,2.894370,0.2300,0.1800,9.5900,-0.0625,0.0000,-0.0625,0.0000,0.0000,0.0000,16382.0000,157.0000,-207.0000,0.0000,0.0851
29682243,101294.156250,21.070000,2.568046,0.2400,0.1700,9.5700,0.0625,-0.1875,-0.1250,0.0000,0.0000,0.0000,16382.0000,157.0000,-207.0000,0.0000,0.1078
29711845,101291.312500,21.070000,2.804909,0.2400,0.1700,9.5800,0.0000,0.0000,0.0000,0.0000,0.0000,0.0000,16382.0000,157.0000,-207.0000,0.0000,0.1422
29741442,101295.226562,21.070000,2.479096,0.2100,0.1800,9.5700,-0.1250,0.1250,0.0000,0.0000,0.0000,0.0000,16382.0000,157.0000,-207.0000,0.0000,0.1463
29780560,101291.312500,21.070000,2.804909,0.2400,0.1800,9.5900,-0.0625,-0.1875,-0.0625,0.0000,0.0000,0.0000,16382.0000,157.0000,-207.0000,0.0000,0.1463
29811063,101291.312500,21.070000,2.804909,0.2400,0.1600,9.5800,-0.1875,-0.0625,0.0000,0.0000,0.0000,0.0000,16382.0000,157.0000,-207.0000,0.0000,0.1736
29841171,101285.242188,21.059999,3.310676,0.2300,0.1700,9.6000,0.0000,-0.1875,0.0625,0.0000,0.0000,0.0000,16382.0000,157.0000,-207.0000,0.0000,0.1698
29871270,101291.312500,21.070000,2.804909,0.2400,0.1900,9.6000,0.0000,-0.1250,0.0000,0.0000,0.0000,0.0000,16382.0000,157.0000,-207.0000,0.0000,0.1747
29902670,101291.312500,21.070000,2.804909,0.2400,0.1700,9.5700,-0.1875,0.0000,0.0000,0.0000,0.0000,0.0000,16382.0000,157.0000,-207.0000,0.0000,0.1593
29932156,101295.226562,21.070000,2.479096,0.2400,0.1800,9.5600,0.0625,0.0000,-0.0625,0.0000,0.0000,0.0000,16382.0000,157.0000,-207.0000,0.0000,0.1112
29961755,101291.312500,21.070000,2.804909,0.2500,0.1500,9.5700,0.0625,0.0000,-0.0625,0.0000,0.0000,0.0000,16382.0000,157.0000,-207.0000,0.0000,0.0975
30022930,101294.156250,21.070000,2.568046,0.2400,0.1700,9.5600,0.0625,0.0000,0.0625,0.0000,0.0000,0.0000,16382.0000,157.0000,-207.0000,0.0000,0.0845
30052399,101297.390625,21.080000,2.299167,0.2600,0.1800,9.5800,0.1875,-0.1250,-0.0625,0.0000,0.0000,0.0000,16382.0000,157.0000,-207.0000,0.0000,0.0440
30082093,101291.312500,21.070000,2.804909,0.2300,0.1700,9.5500,0.0625,-0.1250,0.0000,0.0000,0.0000,0.0000,16382.0000,157.0000,-207.0000,0.0000,0.0802
30113367,101293.078125,21.059999,2.658013,0.2300,0.1800,9.5800,0.0625,-0.0625,-0.0625,0.0000,0.0000,0.0000,16382.0000,157.0000,-207.0000,0.0000,0.0851
30143023,101294.156250,21.070000,2.568046,0.2200,0.1900,9.5600,-0.1250,0.0625,-0.0625,0.0000,0.0000,0.0000,16382.0000,157.0000,-207.0000,0.0000,0.0661
30172587,101295.226562,21.070000,2.479096,0.2300,0.1900,9.5800,0.0625,0.0000,0.0000,0.0000,0.0000,0.0000,16382.0000,157.0000,-207.0000,0.0000,-0.0200
30202445,101290.242188,21.070000,2.894370,0.2400,0.1700,9.5600,0.0000,-0.0625,0.0000,0.0000,0.0000,0.0000,16382.0000,157.0000,-207.0000,0.0000,-0.0241
30242002,101295.226562,21.070000,2.479096,0.2400,0.1400,9.5400,-0.0625,0.1250,-0.0625,0.0000,0.0000,0.0000,16382.0000,157.0000,-207.0000,0.0000,-0.0745
30272506,101300.921875,21.059999,2.004882,0.2400,0.1800,9.5800,0.0625,-0.1250,-0.1250,0.0000,0.0000,0.0000,16382.0000,157.0000,-207.0000,0.0000,-0.1041
30302625,101291.312500,21.070000,2.804909,0.2500,0.1800,9.5800,0.1250,-0.0625,0.0000,0.0000,0.0000,0.0000,16382.0000,157.0000,-207.0000,0.0000,-0.1088
30334045,101291.312500,21.070000,2.804909,0.2400,0.1900,9.5500,0.0000,0.0625,0.0625,0.0000,0.0000,0.0000,16382.0000,157.0000,-207.0000,0.0000,-0.0881
30363614,101293.078125,21.059999,2.658013,0.2300,0.1700,9.5900,0.0625,-0.1250,-0.0625,0.0000,0.0000,0.0000,16382.0000,157.0000,-207.0000,0.0000,-0.0587
30393226,101300.921875,21.059999,2.004882,0.2400,0.1700,9.5800,0.0625,-0.0625,-0.1250,0.0000,0.0000,0.0000,16382.0000,157.0000,-207.0000,0.0000,-0.1275
30423088,101300.226562,21.080000,2.062823,0.2300,0.1700,9.5700,0.0625,-0.1250,0.0625,0.0000,0.0000,0.0000,16382.0000,157.0000,-207.0000,0.0000,-0.1703
30454444,101295.226562,21.070000,2.479096,0.2500,0.1600,9.5600,0.0625,0.0625,-0.0625,0.0000,0.0000,0.0000,16382.0000,157.0000,-207.0000,0.0000,-0.1590
30483976,101306.992188,21.070000,1.499178,0.2500,0.1900,9.5700,0.0000,0.2500,0.1250,0.0000,0.0000,0.0000,16382.0000,157.0000,-207.0000,0.0000,-0.2404
30513555,101294.156250,21.070000,2.568046,0.2500,0.1700,9.5800,0.0000,0.0625,0.0000,0.0000,0.0000,0.0000,16382.0000,157.0000,-207.0000,0.0000,-0.2730
30544916,101287.398438,21.070000,3.131241,0.2300,0.1700,9.5900,0.0625,0.0625,0.0000,0.0000,0.0000,0.0000,16382.0000,157.0000,-207.0000,0.0000,-0.2173
30574527,101290.242188,21.070000,2.894370,0.2400,0.1600,9.5700,-0.0625,0.0625,0.0000,0.0000,0.0000,0.0000,16382.0000,157.0000,-207.0000,0.0000,-0.1348
30604178,101291.312500,21.070000,2.804909,0.2300,0.1700,9.5900,-0.1250,0.1250,-0.0625,0.0000,0.0000,0.0000,16382.0000,157.0000,-207.0000,0.0000,-0.1497
30643367,101287.398438,21.070000,3.131241,0.2400,0.2000,9.5600,0.0000,0.1875,0.1250,0.0000,0.0000,0.0000,16382.0000,157.0000,-207.0000,0.0000,-0.1265
30673849,101295.226562,21.070000,2.479096,0.2300,0.1700,9.5600,0.0625,0.1250,0.0625,0.0000,0.0000,0.0000,16382.0000,157.0000,-207.0000,0.0000,-0.1473
30703989,101305.906250,21.070000,1.589644,0.2200,0.1800,9.5700,0.0000,-0.0625,-0.0625,0.0000,0.0000,0.0000,16382.0000,157.0000,-207.0000,0.0000,-0.1675
30734045,101293.078125,21.059999,2.658013,0.2500,0.1700,9.5500,0.1250,0.0625,0.0000,0.0000,0.0000,0.0000,16382.0000,157.0000,-207.0000,0.0000,-0.1014
30765453,101283.476562,21.070000,3.457582,0.2400,0.1900,9.5800,0.0000,0.1250,0.0000,0.0000,0.0000,0.0000,16382.0000,157.0000,-207.0000,0.0000,-0.0297
30795001,101304.843750,21.059999,1.678077,0.2400,0.1800,9.6300,0.1250,0.0000,0.0625,0.0000,0.0000,0.0000,16382.0000,157.0000,-207.0000,0.0000,0.0125
30824602,101299.148438,21.070000,2.152786,0.2500,0.1700,9.5600,0.0000,0.1250,-0.0625,0.0000,0.0000,0.0000,16382.0000,157.0000,-207.0000,0.0000,-0.0272
30856037,101290.242188,21.070000,2.894370,0.2400,0.1700,9.5700,-0.0625,-0.0625,0.0000,0.0000,0.0000,0.0000,16382.0000,157.0000,-207.0000,0.0000,-0.0509
30885583,101283.476562,21.070000,3.457582,0.2300,0.1800,9.5800,-0.0625,0.1250,0.0625,0.0000,0.0000,0.0000,16382.0000,157.0000,-207.0000,0.0000,-0.0076
30915188,101295.226562,21.070000,2.479096,0.2100,0.1900,9.5800,0.0000,0.0625,-0.0625,0.0000,0.0000,0.0000,16382.0000,157.0000,-207.0000,0.0000,-0.0301
30944784,101291.312500,21.070000,2.804909,0.2300,0.1800,9.5700,-0.0625,0.0000,0.0000,0.0000,0.0000,0.0000,16382.0000,157.0000,-207.0000,0.0000,-0.0711
30976166,101293.078125,21.059999,2.658013,0.2300,0.1300,9.5400,0.0000,0.1250,-0.1250,0.0000,0.0000,0.0000,16382.0000,157.0000,-207.0000,0.0000,-0.0568
31005707,101291.312500,21.070000,2.804909,0.2400,0.1800,9.5800,0.1875,0.1875,-0.0625,0.0000,0.0000,0.0000,16382.0000,157.0000,-207.0000,0.0000,0.0600
31035357,101291.312500,21.070000,2.804909,0.2400,0.1900,9.5700,0.1875,-0.0625,0.0000,0.0000,0.0000,0.0000,16382.0000,157.0000,-207.0000,0.0000,0.0747
31074660,101301.296875,21.080000,1.973878,0.2400,0.1700,9.5500,0.0000,-0.1250,0.0000,0.0000,0.0000,0.0000,16382.0000,157.0000,-207.0000,0.0000,-0.0618
31105154,101299.148438,21.070000,2.152786,0.2500,0.1700,9.5800,0.0625,-0.1250,0.0000,0.0000,0.0000,0.0000,16382.0000,157.0000,-207.0000,0.0000,0.0059
31135325,101290.242188,21.070000,2.894370,0.2400,0.1800,9.5500,0.0625,0.0625,-0.0625,0.0000,0.0000,0.0000,16382.0000,157.0000,-207.0000,0.0000,0.0747
31166686,101295.226562,21.070000,2.479096,0.2400,0.1700,9.5800,0.0000,0.0625,0.0625,0.0000,0.0000,0.0000,16382.0000,157.0000,-207.0000,0.0000,0.0415
31196338,101294.156250,21.070000,2.568046,0.2400,0.1800,9.5800,0.0625,0.2500,0.0000,0.0000,0.0000,0.0000,16382.0000,157.0000,-207.0000,0.0000,-0.0409
31225891,101292.390625,21.080000,2.715450,0.2600,0.1900,9.5700,0.1250,0.3125,-0.1250,0.0000,0.0000,0.0000,16382.0000,157.0000,-207.0000,0.0000,-0.0137
31255729,101299.148438,21.070000,2.152786,0.2500,0.1700,9.5700,0.1250,0.0625,-0.0625,0.0000,0.0000,0.0000,16382.0000,157.0000,-207.0000,0.0000,-0.0706
31287103,101297.000000,21.059999,2.331696,0.2200,0.1700,9.6000,-0.0625,0.1875,0.0000,0.0000,0.0000,0.0000,16382.0000,157.0000,-207.0000,0.0000,-0.0938
31316694,101300.226562,21.080000,2.062823,0.2100,0.1900,9.5700,0.0000,0.0625,0.0000,0.0000,0.0000,0.0000,16382.0000,157.0000,-207.0000,0.0000,-0.1597
31346289,101287.398438,21.070000,3.131241,0.2400,0.1800,9.5900,-0.0625,0.0625,0.0625,0.0000,0.0000,0.0000,16382.0000,157.0000,-207.0000,0.0000,-0.1336
31377686,101299.148438,21.070000,2.152786,0.2200,0.1900,9.5500,0.0625,0.0000,-0.1875,0.0000,0.0000,0.0000,16382.0000,157.0000,-207.0000,0.0000,-0.1026
31407290,101293.468750,21.080000,2.625482,0.2200,0.1900,9.5900,0.1875,-0.1250,-0.0625,0.0000,0.0000,0.0000,16382.0000,157.0000,-207.0000,0.0000,-0.0417
31436743,101299.148438,21.070000,2.152786,0.2300,0.1800,9.5600,0.0000,-0.0625,0.0625,0.0000,0.0000,0.0000,16382.0000,157.0000,-207.0000,0.0000,-0.1028
31466438,101279.562500,21.070000,3.783426,0.2300,0.1700,9.5600,0.0000,-0.0625,-0.0625,0.0000,0.0000,0.0000,16382.0000,157.0000,-207.0000,0.0000,0.0081
31505978,101291.312500,21.070000,2.804909,0.2500,0.1800,9.5900,-0.0625,-0.1875,0.0625,0.0000,0.0000,0.0000,16382.0000,157.0000,-207.0000,0.0000,0.0252
31536467,101291.312500,21.070000,2.804909,0.2500,0.1800,9.5700,-0.0625,-0.1250,0.1250,0.0000,0.0000,0.0000,16382.0000,157.0000,-207.0000,0.0000,0.0342
31596414,101294.156250,21.070000,2.568046,0.2500,0.1700,9.5800,0.0000,-0.0625,0.0625,0.0000,0.0000,0.0000,16382.0000,157.0000,-207.0000,0.0000,0.0757
31628197,101291.312500,21.070000,2.804909,0.2400,0.1700,9.5800,0.0000,0.0625,0.0000,0.0000,0.0000,0.0000,16382.0000,157.0000,-207.0000,0.0000,0.1129
31657661,101291.312500,21.070000,2.804909,0.2200,0.1700,9.5800,-0.0625,0.0625,0.0000,0.0000,0.0000,0.0000,16382.0000,157.0000,-207.0000,0.0000,0.1871
31687316,101299.148438,21.070000,2.152786,0.2200,0.1800,9.5800,0.0625,-0.2500,0.0000,0.0000,0.0000,0.0000,16382.0000,157.0000,-207.0000,0.0000,0.0994
31718696,101299.148438,21.070000,2.152786,0.2500,0.1800,9.5800,0.0000,0.0625,0.0625,0.0000,0.0000,0.0000,16382.0000,157.0000,-207.0000,0.0000,0.1077
31748298,101291.312500,21.070000,2.804909,0.2500,0.1700,9.5800,0.0625,-0.1250,0.0000,0.0000,0.0000,0.0000,16382.0000,157.0000,-207.0000,0.0000,0.1191
31777896,101293.468750,21.080000,2.625482,0.2300,0.2000,9.5900,0.0625,-0.1875,0.0000,0.0000,0.0000,0.0000,16382.0000,157.0000,-207.0000,0.0000,0.1718
31807463,101283.476562,21.070000,3.457582,0.2400,0.2200,9.6000,-0.1250,0.0625,-0.1250,0.0000,0.0000,0.0000,16382.0000,157.0000,-207.0000,0.0000,0.1196
31838868,101296.312500,21.080000,2.388623,0.2100,0.1100,9.5500,-0.1250,0.0000,-0.1875,0.0000,0.0000,0.0000,16382.0000,157.0000,-207.0000,0.0000,0.0703
31868416,101299.148438,21.070000,2.152786,0.2500,0.2100,9.6100,-0.0625,0.0000,0.2500,0.0000,0.0000,0.0000,16382.0000,157.0000,-207.0000,0.0000,0.0181
31898066,101295.226562,21.070000,2.479096,0.2400,0.2200,9.5800,0.0625,-0.1250,-0.1250,0.0000,0.0000,0.0000,16382.0000,157.0000,-207.0000,0.0000,0.0158
31937394,101299.148438,21.070000,2.152786,0.2300,0.1000,9.5800,-0.0625,0.0000,0.0625,0.0000,0.0000,0.0000,16382.0000,157.0000,-207.0000,0.0000,-0.0393
31967843,101292.390625,21.080000,2.715450,0.2300,0.1400,9.6000,0.0000,0.1875,0.1250,0.0000,0.0000,0.0000,16382.0000,157.0000,-207.0000,0.0000,-0.0625
31997965,101294.156250,21.070000,2.568046,0.2300,0.2200,9.5900,-0.0625,0.1250,0.0625,0.0000,0.0000,0.0000,16382.0000,157.0000,-207.0000,0.0000,-0.0311
32028074,101282.398438,21.070000,3.547557,0.2800,0.2000,9.5600,-0.0625,0.0000,0.0000,0.0000,0.0000,0.0000,16382.0000,157.0000,-207.0000,0.0000,0.0870
32059445,101299.148438,21.070000,2.152786,0.2400,0.1500,9.5900,0.0000,-0.1250,0.0625,0.0000,0.0000,0.0000,16382.0000,157.0000,-207.0000,0.0000,0.0087
32089067,101303.070312,21.070000,1.825977,0.2200,0.1300,9.5900,0.0625,0.1875,0.1250,0.0000,0.0000,0.0000,16382.0000,157.0000,-207.0000,0.0000,-0.0564
32118672,101291.312500,21.070000,2.804909,0.2400,0.1900,9.5700,0.1250,-0.1250,0.1250,0.0000,0.0000,0.0000,16382.0000,157.0000,-207.0000,0.0000,-0.1151
32150047,101291.312500,21.070000,2.804909,0.2400,0.2300,9.6000,-0.1250,0.0625,0.0000,0.0000,0.0000,0.0000,16382.0000,157.0000,-207.0000,0.0000,-0.0717
32179629,101285.242188,21.059999,3.310676,0.2500,0.1800,9.5800,0.0000,-0.1875,0.1875,0.0000,0.0000,0.0000,16382.0000,157.0000,-207.0000,0.0000,0.0340
32209228,101292.390625,21.080000,2.715450,0.2300,0.1000,9.5900,0.0000,0.0625,0.1875,0.0000,0.0000,0.0000,16382.0000,157.0000,-207.0000,0.0000,0.0659
32240585,101295.226562,21.070000,2.479096,0.2500,0.1800,9.5800,0.0000,-0.0625,0.1875,0.0000,0.0000,0.0000,16382.0000,157.0000,-207.0000,0.0000,0.0986
32270255,101297.390625,21.080000,2.299167,0.2200,0.2200,9.5900,0.0000,-0.0625,0.0625,0.0000,0.0000,0.0000,16382.0000,157.0000,-207.0000,0.0000,0.0427
32299850,101282.398438,21.070000,3.547557,0.2700,0.1500,9.6000,-0.0625,-0.0625,0.0000,0.0000,0.0000,0.0000,16382.0000,157.0000,-207.0000,0.0000,0.1229
32329451,101283.476562,21.070000,3.457582,0.2300,0.1400,9.5800,0.0625,0.3125,0.0625,0.0000,0.0000,0.0000,16382.0000,157.0000,-207.0000,0.0000,0.1139
32368650,101293.078125,21.059999,2.658013,0.2500,0.2200,9.6000,0.0000,-0.1875,0.1250,0.0000,0.0000,0.0000,16382.0000,157.0000,-207.0000,0.0000,0.1448
32399151,101291.312500,21.070000,2.804909,0.2300,0.1800,9.5800,0.0000,0.0000,-0.1250,0.0000,0.0000,0.0000,16382.0000,157.0000,-207.0000,0.0000,0.2297
32429277,101299.148438,21.070000,2.152786,0.2600,0.1200,9.5500,0.0625,-0.0625,0.0625,0.0000,0.0000,0.0000,16382.0000,157.0000,-207.0000,0.0000,0.1793
32460655,101299.148438,21.070000,2.152786,0.2300,0.1500,9.5800,0.0000,0.1875,0.0000,0.0000,0.0000,0.0000,16382.0000,157.0000,-207.0000,0.0000,0.1402
32490217,101295.226562,21.070000,2.479096,0.2300,0.2100,9.5700,-0.0625,-0.0625,0.0000,0.0000,0.0000,0.0000,16382.0000,157.0000,-207.0000,0.0000,0.0570
32519821,101299.148438,21.070000,2.152786,0.2400,0.2100,9.5600,0.0000,0.0000,-0.0625,0.0000,0.0000,0.0000,16382.0000,157.0000,-207.0000,0.0000,0.0138
32549775,101298.078125,21.070000,2.241732,0.2500,0.1600,9.5600,-0.0625,0.0000,-0.1250,0.0000,0.0000,0.0000,16382.0000,157.0000,-207.0000,0.0000,-0.0016
32581127,101300.226562,21.080000,2.062823,0.2300,0.1600,9.5700,0.0000,-0.1250,0.1250,0.0000,0.0000,0.0000,16382.0000,157.0000,-207.0000,0.0000,-0.0104
32610715,101303.070312,21.070000,1.825977,0.2400,0.1800,9.5800,0.0000,0.0625,-0.0625,0.0000,0.0000,0.0000,16382.0000,157.0000,-207.0000,0.0000,-0.1630
32640317,101295.226562,21.070000,2.479096,0.2500,0.2000,9.5600,-0.1875,0.1875,0.0000,0.0000,0.0000,0.0000,16382.0000,157.0000,-207.0000,0.0000,-0.2709
32671689,101295.226562,21.070000,2.479096,0.2500,0.1800,9.5700,0.1250,-0.0625,-0.0625,0.0000,0.0000,0.0000,16382.0000,157.0000,-207.0000,0.0000,-0.2953
32701308,101291.312500,21.070000,2.804909,0.2200,0.1600,9.5600,-0.1250,0.1250,-0.0625,0.0000,0.0000,0.0000,16382.0000,157.0000,-207.0000,0.0000,-0.2936
32730932,101295.226562,21.070000,2.479096,0.2400,0.2000,9.5600,-0.0625,0.0000,0.0000,0.0000,0.0000,0.0000,16382.0000,157.0000,-207.0000,0.0000,-0.2609
32770077,101291.312500,21.070000,2.804909,0.2400,0.1600,9.5600,0.0000,0.0000,0.1250,0.0000,0.0000,0.0000,16382.0000,157.0000,-207.0000,0.0000,-0.2005
32800390,101291.312500,21.070000,2.804909,0.2400,0.1600,9.5900,0.0625,-0.1875,0.1250,0.0000,0.0000,0.0000,16382.0000,157.0000,-207.0000,0.0000,-0.1697
32830535,101295.226562,21.070000,2.479096,0.2000,0.2000,9.5700,0.0000,0.1875,0.1250,0.0000,0.0000,0.0000,16382.0000,157.0000,-207.0000,0.0000,-0.1436
32860656,101290.242188,21.070000,2.894370,0.2400,0.2000,9.5900,0.0000,0.2500,-0.1250,0.0000,0.0000,0.0000,16382.0000,157.0000,-207.0000,0.0000,-0.0895
32892040,101295.226562,21.070000,2.479096,0.2700,0.1100,9.5600,-0.1250,0.0625,-0.0625,0.0000,0.0000,0.0000,16382.0000,157.0000,-207.0000,0.0000,-0.0562
32921629,101291.312500,21.070000,2.804909,0.2600,0.1900,9.5800,-0.1250,0.1250,0.0000,0.0000,0.0000,0.0000,16382.0000,157.0000,-207.0000,0.0000,0.0482
32951239,101294.156250,21.070000,2.568046,0.2200,0.2200,9.5900,0.0000,0.1250,0.0000,0.0000,0.0000,0.0000,16382.0000,157.0000,-207.0000,0.0000,0.0488
