timestamp,baro_pressure,baro_temperature,baro_altitude,accel_x,accel_y,accel_z,gyro_x,gyro_y,gyro_z,mag_x,mag_y,mag_z,quat_w,quat_x,quat_y,quat_z,fusion_altitude,fusion_velocity
12582579,101284.507812,21.309999,3.371675,0.2200,0.1600,9.5800,0.0000,-0.1250,0.0000,0.0000,0.0000,0.0000,16382.0000,176.0000,-199.0000,0.0000,0.2697
12612971,101285.593750,21.309999,3.281194,0.2400,0.2100,9.5600,0.0625,0.0000,0.1250,0.0000,0.0000,0.0000,16382.0000,176.0000,-199.0000,0.0000,0.5322
12643037,101281.656250,21.309999,3.609065,0.2500,0.2300,9.6000,0.0625,-0.1250,0.0000,0.0000,0.0000,0.0000,16382.0000,176.0000,-199.0000,0.0000,0.8210
12673456,101293.429688,21.309999,2.628532,0.2300,0.2100,9.5900,0.0625,0.0625,0.0625,0.0000,0.0000,0.0000,16382.0000,176.0000,-199.0000,0.0000,1.0312
12703170,101288.429688,21.309999,3.045336,0.2100,0.1900,9.5700,-0.0625,0.0625,-0.1250,0.0000,0.0000,0.0000,16382.0000,176.0000,-199.0000,0.0000,1.2749
12733158,101285.593750,21.309999,3.281194,0.2500,0.1800,9.5800,0.1250,0.0000,-0.0625,0.0000,0.0000,0.0000,16382.0000,176.0000,-199.0000,0.0000,1.5374
12763582,101284.507812,21.309999,3.371675,0.2600,0.2200,9.5500,0.0000,0.0000,0.0000,0.0000,0.0000,0.0000,16382.0000,176.0000,-199.0000,0.0000,1.8071
12793467,101275.593750,21.299999,4.114363,0.2300,0.2200,9.5700,-0.0625,-0.0625,-0.0625,0.0000,0.0000,0.0000,16382.0000,176.0000,-199.0000,0.0000,2.1362
12823496,101282.742188,21.309999,3.519090,0.2200,0.2100,9.5600,-0.0625,0.1875,-0.1250,0.0000,0.0000,0.0000,16382.0000,176.0000,-199.0000,0.0000,2.4178
12853542,101281.656250,21.309999,3.609065,0.2300,0.2000,9.5600,-0.1250,-0.1875,-0.0625,0.0000,0.0000,0.0000,16382.0000,176.0000,-199.0000,0.0000,2.7065
12883996,101288.429688,21.309999,3.045336,0.2300,0.1800,9.5700,0.0000,0.0625,-0.1250,0.0000,0.0000,0.0000,16382.0000,176.0000,-199.0000,0.0000,2.6130
12913821,101284.507812,21.309999,3.371675,0.2200,0.1900,9.5800,0.0000,0.0000,0.0625,0.0000,0.0000,0.0000,16382.0000,176.0000,-199.0000,0.0000,2.5546
12943846,101280.593750,21.309999,3.698024,0.2200,0.2200,9.6000,-0.1250,0.0000,0.0000,0.0000,0.0000,0.0000,16382.0000,176.0000,-199.0000,0.0000,2.4895
12983589,101280.593750,21.309999,3.698024,0.2400,0.1900,9.5700,0.0000,0.0625,-0.0625,0.0000,0.0000,0.0000,16382.0000,176.0000,-199.0000,0.0000,2.5225
13014271,101291.281250,21.299999,2.807451,0.2300,0.1900,9.5500,-0.0625,-0.1875,-0.1250,0.0000,0.0000,0.0000,16382.0000,176.0000,-199.0000,0.0000,2.4426
13044417,101268.828125,21.309999,4.677641,0.2400,0.2000,9.5800,0.0000,-0.0625,0.0625,0.0000,0.0000,0.0000,16382.0000,176.0000,-199.0000,0.0000,2.4886
13075854,101285.593750,21.309999,3.281194,0.2400,0.2100,9.5700,0.0625,-0.2500,0.0000,0.0000,0.0000,0.0000,16382.0000,176.0000,-199.0000,0.0000,2.4140
13105395,101280.593750,21.309999,3.698024,0.2200,0.1900,9.5600,-0.0625,0.1250,-0.0625,0.0000,0.0000,0.0000,16382.0000,176.0000,-199.0000,0.0000,2.2984
13134996,101292.351562,21.309999,2.718499,0.2500,0.1900,9.5900,0.0000,0.0625,0.1250,0.0000,0.0000,0.0000,16382.0000,176.0000,-199.0000,0.0000,2.1640
13164874,101283.429688,21.299999,3.461649,0.2400,0.2100,9.5600,0.0000,-0.0625,0.1250,0.0000,0.0000,0.0000,16382.0000,176.0000,-199.0000,0.0000,2.0800
13196247,101284.507812,21.309999,3.371675,0.2300,0.1900,9.5800,0.0000,0.0000,-0.1250,0.0000,0.0000,0.0000,16382.0000,176.0000,-199.0000,0.0000,2.0452
13225875,101285.593750,21.309999,3.281194,0.2100,0.1900,9.5600,0.0625,0.0000,0.1250,0.0000,0.0000,0.0000,16382.0000,176.0000,-199.0000,0.0000,1.9705
13255394,101288.429688,21.309999,3.045336,0.2500,0.2000,9.5900,-0.0625,-0.0625,0.0625,0.0000,0.0000,0.0000,16382.0000,176.0000,-199.0000,0.0000,1.8443
13286826,101284.507812,21.309999,3.371675,0.2300,0.2000,9.6000,0.0625,-0.1875,-0.1250,0.0000,0.0000,0.0000,16382.0000,176.0000,-199.0000,0.0000,1.7443
13316357,101281.656250,21.309999,3.609065,0.2000,0.2000,9.5800,-0.0625,-0.0625,0.0000,0.0000,0.0000,0.0000,16382.0000,176.0000,-199.0000,0.0000,1.7522
13345949,101282.742188,21.309999,3.519090,0.2500,0.2100,9.5700,-0.0625,-0.0625,0.0000,0.0000,0.0000,0.0000,16382.0000,176.0000,-199.0000,0.0000,1.5660
13375520,101288.429688,21.309999,3.045336,0.2900,0.2000,9.5900,-0.0625,0.1875,0.0625,0.0000,0.0000,0.0000,16382.0000,176.0000,-199.0000,0.0000,1.4815
13415130,101293.429688,21.309999,2.628532,0.1800,0.2200,9.5800,0.0000,-0.1250,-0.0625,0.0000,0.0000,0.0000,16382.0000,176.0000,-199.0000,0.0000,1.3220
13445585,101303.421875,21.320000,1.796498,0.1800,0.2000,9.5900,0.0000,0.1875,0.0000,0.0000,0.0000,0.0000,16382.0000,176.0000,-199.0000,0.0000,1.1939
13475692,101301.273438,21.309999,1.975403,0.2700,0.1900,9.5900,0.0625,0.1875,-0.1875,0.0000,0.0000,0.0000,16382.0000,176.0000,-199.0000,0.0000,1.0057
13507091,101284.507812,21.309999,3.371675,0.2300,0.2000,9.6000,-0.0625,-0.3125,0.0625,0.0000,0.0000,0.0000,16382.0000,176.0000,-199.0000,0.0000,0.9383
13536682,101281.656250,21.309999,3.609065,0.1800,0.2200,9.5800,0.0000,0.1875,0.0000,0.0000,0.0000,0.0000,16382.0000,176.0000,-199.0000,0.0000,0.8989
13566250,101274.898438,21.309999,4.172316,0.2200,0.2100,9.5800,-0.0625,0.0000,0.0000,0.0000,0.0000,0.0000,16382.0000,176.0000,-199.0000,0.0000,0.9282
13597644,101285.593750,21.309999,3.281194,0.2700,0.1900,9.5900,-0.0625,0.1250,0.0000,0.0000,0.0000,0.0000,16382.0000,176.0000,-199.0000,0.0000,0.8535
13627230,101272.750000,21.309999,4.351261,0.2500,0.2000,9.5500,0.0000,0.0625,0.0000,0.0000,0.0000,0.0000,16382.0000,176.0000,-199.0000,0.0000,0.8407
13656884,101269.898438,21.309999,4.588674,0.2200,0.2000,9.5800,0.0625,0.0625,0.0625,0.0000,0.0000,0.0000,16382.0000,176.0000,-199.0000,0.0000,0.8559
13686449,101288.429688,21.309999,3.045336,0.2100,0.2100,9.5600,-0.0625,0.0625,0.0000,0.0000,0.0000,0.0000,16382.0000,176.0000,-199.0000,0.0000,0.7950
13717882,101288.429688,21.309999,3.045336,0.2600,0.1900,9.5800,0.0625,0.1250,0.0000,0.0000,0.0000,0.0000,16382.0000,176.0000,-199.0000,0.0000,0.7757
13747448,101276.671875,21.309999,4.024384,0.2100,0.2200,9.5800,-0.0625,0.0000,0.0625,0.0000,0.0000,0.0000,16382.0000,176.0000,-199.0000,0.0000,0.9180
13777082,101281.656250,21.309999,3.609065,0.2400,0.1900,9.5600,-0.1250,0.0625,0.0000,0.0000,0.0000,0.0000,16382.0000,176.0000,-199.0000,0.0000,1.0092
13816265,101286.656250,21.309999,3.192747,0.2200,0.2100,9.5700,-0.1250,0.1250,-0.1250,0.0000,0.0000,0.0000,16382.0000,176.0000,-199.0000,0.0000,0.9275
13846781,101286.656250,21.309999,3.192747,0.2100,0.1900,9.5800,-0.0625,0.0000,-0.0625,0.0000,0.0000,0.0000,16382.0000,176.0000,-199.0000,0.0000,0.8220
13877058,101282.742188,21.309999,3.519090,0.2400,0.2100,9.5900,-0.0625,0.0625,-0.0625,0.0000,0.0000,0.0000,16382.0000,176.0000,-199.0000,0.0000,0.6863
13907040,101278.820312,21.309999,3.845444,0.2500,0.2100,9.5600,-0.0625,0.1250,-0.0625,0.0000,0.0000,0.0000,16382.0000,176.0000,-199.0000,0.0000,0.6658
13938397,101281.656250,21.309999,3.609065,0.1900,0.1900,9.5800,0.0000,0.0000,0.0000,0.0000,0.0000,0.0000,16382.0000,176.0000,-199.0000,0.0000,0.5194
13968007,101282.742188,21.309999,3.519090,0.2100,0.1900,9.5800,0.0625,0.0625,0.1250,0.0000,0.0000,0.0000,16382.0000,176.0000,-199.0000,0.0000,0.3420
13997606,101289.507812,21.309999,2.955366,0.2700,0.2000,9.5600,-0.1250,0.0625,0.0000,0.0000,0.0000,0.0000,16382.0000,176.0000,-199.0000,0.0000,0.2739
14028988,101281.656250,21.309999,3.609065,0.2700,0.2200,9.5800,-0.0625,-0.1250,0.1250,0.0000,0.0000,0.0000,16382.0000,176.0000,-199.0000,0.0000,0.2581
14058568,101289.507812,21.309999,2.955366,0.2000,0.2100,9.5800,0.0625,0.0000,0.0000,0.0000,0.0000,0.0000,16382.0000,176.0000,-199.0000,0.0000,0.0921
14088166,101290.578125,21.309999,2.866413,0.2500,0.1800,9.5600,0.0000,0.1250,0.0625,0.0000,0.0000,0.0000,16382.0000,176.0000,-199.0000,0.0000,-0.0395
14119543,101286.656250,21.309999,3.192747,0.2800,0.1900,9.5700,0.0000,0.0000,0.0000,0.0000,0.0000,0.0000,16382.0000,176.0000,-199.0000,0.0000,-0.0359
14149143,101279.890625,21.320000,3.756483,0.2300,0.2000,9.5800,-0.1250,0.0000,-0.0625,0.0000,0.0000,0.0000,16382.0000,176.0000,-199.0000,0.0000,0.0110
14178738,101290.578125,21.309999,2.866413,0.1800,0.2200,9.5800,0.0625,0.0625,0.0000,0.0000,0.0000,0.0000,16382.0000,176.0000,-199.0000,0.0000,-0.0394
14208315,101284.507812,21.309999,3.371675,0.2200,0.2100,9.6000,-0.1250,-0.0625,0.0000,0.0000,0.0000,0.0000,16382.0000,176.0000,-199.0000,0.0000,-0.1017
14247566,101285.593750,21.309999,3.281194,0.2700,0.1900,9.5500,-0.0625,0.0625,-0.1250,0.0000,0.0000,0.0000,16382.0000,176.0000,-199.0000,0.0000,-0.1392
14278044,101294.500000,21.309999,2.539582,0.2300,0.2100,9.5700,0.0000,-0.1250,0.0625,0.0000,0.0000,0.0000,16382.0000,176.0000,-199.0000,0.0000,-0.2223
14308368,101286.656250,21.309999,3.192747,0.2200,0.2000,9.5700,-0.0625,0.1250,-0.0625,0.0000,0.0000,0.0000,16382.0000,176.0000,-199.0000,0.0000,-0.1950
14339791,101276.671875,21.309999,4.024384,0.2400,0.1900,9.5800,-0.0625,-0.0625,-0.0625,0.0000,0.0000,0.0000,16382.0000,176.0000,-199.0000,0.0000,-0.1516
14369335,101276.671875,21.309999,4.024384,0.2400,0.2000,9.6000,0.1250,0.0625,0.0000,0.0000,0.0000,0.0000,16382.0000,176.0000,-199.0000,0.0000,-0.0549
14398923,101282.742188,21.309999,3.519090,0.2200,0.2100,9.5800,0.0000,0.1875,-0.0625,0.0000,0.0000,0.0000,16382.0000,176.0000,-199.0000,0.0000,0.0122
14428768,101282.742188,21.309999,3.519090,0.2100,0.2100,9.6000,0.0625,-0.1250,0.0000,0.0000,0.0000,0.0000,16382.0000,176.0000,-199.0000,0.0000,0.0354
14460096,101277.742188,21.309999,3.935421,0.2300,0.1900,9.5400,-0.0625,-0.0625,-0.0625,0.0000,0.0000,0.0000,16382.0000,176.0000,-199.0000,0.0000,0.0420
14489710,101290.578125,21.309999,2.866413,0.2300,0.2000,9.5700,0.0000,0.0000,0.0000,0.0000,0.0000,0.0000,16382.0000,176.0000,-199.0000,0.0000,0.0586
14519291,101287.742188,21.320000,3.102267,0.2200,0.2100,9.5500,-0.1875,0.0000,0.0000,0.0000,0.0000,0.0000,16382.0000,176.0000,-199.0000,0.0000,0.0436
14560478,101282.742188,21.309999,3.519090,0.2000,0.2100,9.5900,-0.1875,0.1875,0.0000,0.0000,0.0000,0.0000,16382.0000,176.0000,-199.0000,0.0000,0.0532
14609045,101285.593750,21.309999,3.281194,0.2400,0.1900,9.5600,-0.0625,0.0625,0.1250,0.0000,0.0000,0.0000,16382.0000,176.0000,-199.0000,0.0000,0.1552
14639396,101285.593750,21.309999,3.281194,0.2400,0.2000,9.5500,0.0000,-0.0625,-0.0625,0.0000,0.0000,0.0000,16382.0000,176.0000,-199.0000,0.0000,0.1641
14678843,101288.429688,21.309999,3.045336,0.2000,0.2000,9.5800,0.0625,0.0000,-0.1250,0.0000,0.0000,0.0000,16382.0000,176.0000,-199.0000,0.0000,0.0792
14709523,101288.429688,21.309999,3.045336,0.2300,0.2000,9.5800,-0.0625,0.0000,-0.0625,0.0000,0.0000,0.0000,16382.0000,176.0000,-199.0000,0.0000,-0.0252
14739655,101281.656250,21.309999,3.609065,0.2300,0.2100,9.5400,0.0000,0.0625,-0.0625,0.0000,0.0000,0.0000,16382.0000,176.0000,-199.0000,0.0000,-0.0192
14769753,101286.656250,21.309999,3.192747,0.2400,0.2100,9.5800,-0.0625,0.1250,-0.0625,0.0000,0.0000,0.0000,16382.0000,176.0000,-199.0000,0.0000,-0.0482
14801149,101276.671875,21.309999,4.024384,0.2100,0.2200,9.5900,-0.0625,0.0000,0.0625,0.0000,0.0000,0.0000,16382.0000,176.0000,-199.0000,0.0000,-0.0542
14830743,101294.500000,21.309999,2.539582,0.2300,0.2100,9.5800,0.1250,-0.0625,-0.0625,0.0000,0.0000,0.0000,16382.0000,176.0000,-199.0000,0.0000,-0.0767
14860276,101281.656250,21.309999,3.609065,0.2300,0.2000,9.5800,-0.0625,0.0000,0.0625,0.0000,0.0000,0.0000,16382.0000,176.0000,-199.0000,0.0000,-0.0308
14891717,101283.429688,21.299999,3.461649,0.2300,0.2100,9.5900,-0.0625,0.1250,-0.0625,0.0000,0.0000,0.0000,16382.0000,176.0000,-199.0000,0.0000,-0.0336
14921293,101280.593750,21.309999,3.698024,0.2200,0.2000,9.5800,-0.0625,-0.1250,-0.0625,0.0000,0.0000,0.0000,16382.0000,176.0000,-199.0000,0.0000,0.0045
14950901,101286.656250,21.309999,3.192747,0.2200,0.2100,9.5600,0.0000,-0.2500,0.0625,0.0000,0.0000,0.0000,16382.0000,176.0000,-199.0000,0.0000,-0.0073
14980479,101294.500000,21.309999,2.539582,0.2300,0.2000,9.6000,0.0625,0.0625,-0.0625,0.0000,0.0000,0.0000,16382.0000,176.0000,-199.0000,0.0000,-0.0561
15011922,101282.742188,21.309999,3.519090,0.2300,0.2000,9.5500,-0.0625,0.0000,0.0625,0.0000,0.0000,0.0000,16382.0000,176.0000,-199.0000,0.0000,-0.0432
15050573,101278.820312,21.309999,3.845444,0.2300,0.2000,9.5600,0.0625,0.0625,-0.1250,0.0000,0.0000,0.0000,16382.0000,176.0000,-199.0000,0.0000,-0.0569
15106002,101281.656250,21.309999,3.609065,0.2400,0.2100,9.5900,0.1875,-0.0625,-0.1250,0.0000,0.0000,0.0000,16382.0000,176.0000,-199.0000,0.0000,-0.0200
15142633,101278.820312,21.309999,3.845444,0.2400,0.1800,9.5900,0.0000,-0.0625,-0.0625,0.0000,0.0000,0.0000,16382.0000,176.0000,-199.0000,0.0000,-0.0427
15172233,101286.656250,21.309999,3.192747,0.2200,0.1800,9.6000,-0.0625,-0.0625,0.0625,0.0000,0.0000,0.0000,16382.0000,176.0000,-199.0000,0.0000,0.0422
15201839,101279.890625,21.320000,3.756483,0.2200,0.2300,9.5900,0.1250,0.1250,0.0000,0.0000,0.0000,0.0000,16382.0000,176.0000,-199.0000,0.0000,0.0475
15233231,101284.507812,21.309999,3.371675,0.2500,0.2100,9.6100,-0.0625,-0.0625,0.1250,0.0000,0.0000,0.0000,16382.0000,176.0000,-199.0000,0.0000,0.0581
15262785,101286.656250,21.309999,3.192747,0.2400,0.1900,9.5800,-0.0625,0.0000,-0.0625,0.0000,0.0000,0.0000,16382.0000,176.0000,-199.0000,0.0000,0.0355
15292397,101278.820312,21.309999,3.845444,0.2200,0.1800,9.5500,0.0625,0.0000,0.0000,0.0000,0.0000,0.0000,16382.0000,176.0000,-199.0000,0.0000,0.0847
15321982,101295.578125,21.320000,2.449616,0.2100,0.2100,9.5700,0.1250,-0.0625,0.0000,0.0000,0.0000,0.0000,16382.0000,176.0000,-199.0000,0.0000,0.0876
15353357,101285.593750,21.309999,3.281194,0.2200,0.2200,9.5500,-0.0625,0.0000,-0.0625,0.0000,0.0000,0.0000,16382.0000,176.0000,-199.0000,0.0000,0.0787
15382987,101282.039062,21.330000,3.577548,0.2300,0.2000,9.5500,-0.0625,0.0000,-0.0625,0.0000,0.0000,0.0000,16382.0000,176.0000,-199.0000,0.0000,0.0526
15412581,101287.742188,21.320000,3.102267,0.2200,0.2000,9.5800,-0.0625,0.1250,0.0000,0.0000,0.0000,0.0000,16382.0000,176.0000,-199.0000,0.0000,0.0037
15443974,101272.046875,21.320000,4.409724,0.2100,0.2100,9.5600,0.0000,-0.0625,-0.0625,0.0000,0.0000,0.0000,16382.0000,176.0000,-199.0000,0.0000,0.0358
15473569,101280.968750,21.320000,3.666507,0.2400,0.2000,9.5900,-0.0625,-0.1250,0.0000,0.0000,0.0000,0.0000,16382.0000,176.0000,-199.0000,0.0000,0.0802
15503160,101279.890625,21.320000,3.756483,0.2400,0.2000,9.5800,-0.1250,0.0000,-0.0625,0.0000,0.0000,0.0000,16382.0000,176.0000,-199.0000,0.0000,0.0820
15532807,101283.812500,21.320000,3.429624,0.2200,0.1900,9.5900,-0.0625,-0.0625,0.0000,0.0000,0.0000,0.0000,16382.0000,176.0000,-199.0000,0.0000,0.0914
15571839,101278.820312,21.309999,3.845444,0.2300,0.2100,9.6000,0.0000,-0.0625,0.0000,0.0000,0.0000,0.0000,16382.0000,176.0000,-199.0000,0.0000,0.1501
15602253,101292.726562,21.320000,2.687494,0.2400,0.2100,9.5600,0.0625,-0.1250,0.0000,0.0000,0.0000,0.0000,16382.0000,176.0000,-199.0000,0.0000,0.0397
15632409,101288.812500,21.320000,3.013313,0.2300,0.1800,9.5800,0.1250,-0.0625,-0.0625,0.0000,0.0000,0.0000,16382.0000,176.0000,-199.0000,0.0000,0.1080
15663793,101294.500000,21.309999,2.539582,0.2400,0.2100,9.5800,-0.0625,-0.1250,0.0625,0.0000,0.0000,0.0000,16382.0000,176.0000,-199.0000,0.0000,0.0421
15693386,101278.820312,21.309999,3.845444,0.2100,0.2200,9.5700,-0.0625,0.1875,0.0625,0.0000,0.0000,0.0000,16382.0000,176.0000,-199.0000,0.0000,0.0493
15723010,101278.820312,21.309999,3.845444,0.2400,0.2100,9.5900,-0.0625,0.1250,0.0625,0.0000,0.0000,0.0000,16382.0000,176.0000,-199.0000,0.0000,0.1106
15754387,101288.812500,21.320000,3.013313,0.2300,0.1800,9.5900,0.0000,-0.1250,0.0625,0.0000,0.0000,0.0000,16382.0000,176.0000,-199.0000,0.0000,-0.0142
15783993,101282.742188,21.309999,3.519090,0.2200,0.1700,9.5800,0.0000,0.0000,0.0000,0.0000,0.0000,0.0000,16382.0000,176.0000,-199.0000,0.0000,-0.0420
15813592,101280.968750,21.320000,3.666507,0.2300,0.2000,9.5900,-0.0625,0.0000,0.0000,0.0000,0.0000,0.0000,16382.0000,176.0000,-199.0000,0.0000,-0.0569
15843191,101282.742188,21.309999,3.519090,0.2200,0.2200,9.5800,0.0625,0.0000,0.0000,0.0000,0.0000,0.0000,16382.0000,176.0000,-199.0000,0.0000,-0.0527
15882881,101278.820312,21.309999,3.845444,0.2300,0.2000,9.5800,0.0000,-0.0625,-0.1250,0.0000,0.0000,0.0000,16382.0000,176.0000,-199.0000,0.0000,-0.0788
15913291,101288.812500,21.320000,3.013313,0.2200,0.2000,9.5700,-0.0625,-0.0625,0.0625,0.0000,0.0000,0.0000,16382.0000,176.0000,-199.0000,0.0000,-0.0426
15943444,101294.500000,21.309999,2.539582,0.2300,0.2100,9.5800,-0.0625,0.1250,-0.0625,0.0000,0.0000,0.0000,16382.0000,176.0000,-199.0000,0.0000,-0.0603
15983073,101295.578125,21.320000,2.449616,0.2400,0.2100,9.5700,-0.0625,0.1250,-0.0625,0.0000,0.0000,0.0000,16382.0000,176.0000,-199.0000,0.0000,-0.0378
16013537,101290.578125,21.309999,2.866413,0.2200,0.2000,9.5800,-0.0625,0.0625,-0.0625,0.0000,0.0000,0.0000,16382.0000,176.0000,-199.0000,0.0000,-0.1227
16043643,101280.968750,21.320000,3.666507,0.2300,0.1900,9.5900,0.0000,0.1875,-0.0625,0.0000,0.0000,0.0000,16382.0000,176.0000,-199.0000,0.0000,-0.1435
16073763,101279.890625,21.320000,3.756483,0.2300,0.2100,9.5800,-0.1250,-0.0625,0.0000,0.0000,0.0000,0.0000,16382.0000,176.0000,-199.0000,0.0000,-0.0656
16105192,101280.968750,21.320000,3.666507,0.2300,0.2000,9.6100,0.0000,-0.0625,0.0000,0.0000,0.0000,0.0000,16382.0000,176.0000,-199.0000,0.0000,-0.0669
16134776,101283.812500,21.320000,3.429624,0.2200,0.2000,9.5900,0.0625,-0.1250,0.0625,0.0000,0.0000,0.0000,16382.0000,176.0000,-199.0000,0.0000,-0.0971
16164391,101283.812500,21.320000,3.429624,0.2200,0.2000,9.5600,0.0000,0.0000,0.0000,0.0000,0.0000,0.0000,16382.0000,176.0000,-199.0000,0.0000,-0.1043
16195745,101284.890625,21.320000,3.340159,0.2300,0.1900,9.5600,0.0000,0.1250,0.0000,0.0000,0.0000,0.0000,16382.0000,176.0000,-199.0000,0.0000,-0.1560
16225348,101287.742188,21.320000,3.102267,0.2300,0.2100,9.5900,0.0000,-0.0625,-0.0625,0.0000,0.0000,0.0000,16382.0000,176.0000,-199.0000,0.0000,-0.1435
16254865,101280.968750,21.320000,3.666507,0.2300,0.2100,9.5700,0.0625,-0.1875,0.0000,0.0000,0.0000,0.0000,16382.0000,176.0000,-199.0000,0.0000,-0.0432
16286146,101280.968750,21.320000,3.666507,0.2200,0.2000,9.5900,0.0000,0.0000,0.1250,0.0000,0.0000,0.0000,16382.0000,176.0000,-199.0000,0.0000,0.0660
16315796,101279.890625,21.320000,3.756483,0.2300,0.2000,9.5600,-0.0625,0.0000,0.0000,0.0000,0.0000,0.0000,16382.0000,176.0000,-199.0000,0.0000,0.1521
16345327,101280.968750,21.320000,3.666507,0.2200,0.2100,9.6000,0.0000,0.1875,-0.0625,0.0000,0.0000,0.0000,16382.0000,176.0000,-199.0000,0.0000,0.1426
16374963,101287.742188,21.320000,3.102267,0.2300,0.2000,9.5900,-0.1250,0.0000,0.0000,0.0000,0.0000,0.0000,16382.0000,176.0000,-199.0000,0.0000,0.0956
16414402,101275.968750,21.320000,4.082844,0.2000,0.2100,9.5700,0.0000,0.0625,0.0000,0.0000,0.0000,0.0000,16382.0000,176.0000,-199.0000,0.0000,0.1064
16444890,101278.820312,21.309999,3.845444,0.2300,0.2100,9.5800,0.0000,-0.1875,0.0000,0.0000,0.0000,0.0000,16382.0000,176.0000,-199.0000,0.0000,0.1433
16475074,101279.890625,21.320000,3.756483,0.2300,0.2000,9.6100,0.0000,0.0000,0.0625,0.0000,0.0000,0.0000,16382.0000,176.0000,-199.0000,0.0000,0.1701
16506426,101295.578125,21.320000,2.449616,0.2300,0.2000,9.5700,-0.1250,-0.2500,0.0625,0.0000,0.0000,0.0000,16382.0000,176.0000,-199.0000,0.0000,0.1060
16536050,101277.046875,21.320000,3.993374,0.2400,0.2000,9.5700,-0.0625,0.0000,-0.0625,0.0000,0.0000,0.0000,16382.0000,176.0000,-199.0000,0.0000,0.1791
16565699,101279.890625,21.320000,3.756483,0.2300,0.2100,9.5700,0.0625,0.0625,0.0625,0.0000,0.0000,0.0000,16382.0000,176.0000,-199.0000,0.0000,0.1637
16595432,101279.890625,21.320000,3.756483,0.2400,0.2200,9.5600,0.0000,0.1250,-0.0625,0.0000,0.0000,0.0000,16382.0000,176.0000,-199.0000,0.0000,0.1680
16626822,101279.890625,21.320000,3.756483,0.2400,0.2100,9.5800,0.0000,-0.0625,0.0000,0.0000,0.0000,0.0000,16382.0000,176.0000,-199.0000,0.0000,0.1698
16656398,101278.820312,21.309999,3.845444,0.2300,0.2000,9.5700,-0.0625,-0.0625,-0.0625,0.0000,0.0000,0.0000,16382.0000,176.0000,-199.0000,0.0000,0.1829
16686001,101278.117188,21.330000,3.903904,0.2200,0.2100,9.6000,0.0000,0.0000,-0.0625,0.0000,0.0000,0.0000,16382.0000,176.0000,-199.0000,0.0000,0.2619
16717371,101287.742188,21.320000,3.102267,0.2600,0.2300,9.5700,-0.1250,0.0625,-0.0625,0.0000,0.0000,0.0000,16382.0000,176.0000,-199.0000,0.0000,0.1657
16747026,101289.890625,21.330000,2.923343,0.2200,0.2100,9.6000,0.0625,-0.1875,0.0000,0.0000,0.0000,0.0000,16382.0000,176.0000,-199.0000,0.0000,0.0901
16776582,101272.046875,21.320000,4.409724,0.2200,0.1900,9.5700,-0.0625,0.1250,-0.0625,0.0000,0.0000,0.0000,16382.0000,176.0000,-199.0000,0.0000,0.1347
16815626,101284.890625,21.320000,3.340159,0.2200,0.2000,9.5700,-0.0625,0.0625,-0.0625,0.0000,0.0000,0.0000,16382.0000,176.0000,-199.0000,0.0000,0.2208
16846127,101284.890625,21.320000,3.340159,0.2400,0.2100,9.5600,0.0625,-0.1250,0.0625,0.0000,0.0000,0.0000,16382.0000,176.0000,-199.0000,0.0000,0.1656
16876207,101295.578125,21.320000,2.449616,0.2300,0.2100,9.5800,0.0000,-0.0625,0.0000,0.0000,0.0000,0.0000,16382.0000,176.0000,-199.0000,0.0000,0.0349
16906332,101284.890625,21.320000,3.340159,0.2300,0.1800,9.5800,0.0000,-0.1250,0.0000,0.0000,0.0000,0.0000,16382.0000,176.0000,-199.0000,0.0000,-0.0079
16937720,101286.656250,21.309999,3.192747,0.2200,0.1900,9.5600,-0.0625,0.0625,0.0000,0.0000,0.0000,0.0000,16382.0000,176.0000,-199.0000,0.0000,-0.0566
16967313,101287.742188,21.320000,3.102267,0.2200,0.2100,9.5700,0.1250,-0.2500,0.0000,0.0000,0.0000,0.0000,16382.0000,176.0000,-199.0000,0.0000,-0.1309
16996962,101276.671875,21.309999,4.024384,0.2300,0.2000,9.5900,0.1250,0.0000,-0.0625,0.0000,0.0000,0.0000,16382.0000,176.0000,-199.0000,0.0000,-0.1112
17028360,101283.812500,21.320000,3.429624,0.2300,0.2000,9.5800,0.0000,-0.0625,0.0000,0.0000,0.0000,0.0000,16382.0000,176.0000,-199.0000,0.0000,-0.0737
17057904,101287.742188,21.320000,3.102267,0.2200,0.2000,9.5800,0.0625,-0.1250,0.0000,0.0000,0.0000,0.0000,16382.0000,176.0000,-199.0000,0.0000,-0.0427
17087512,101282.742188,21.309999,3.519090,0.2300,0.2100,9.5800,-0.0625,0.1875,-0.0625,0.0000,0.0000,0.0000,16382.0000,176.0000,-199.0000,0.0000,-0.1336
17117111,101284.507812,21.309999,3.371675,0.2400,0.2100,9.5800,-0.0625,-0.1250,0.1250,0.0000,0.0000,0.0000,16382.0000,176.0000,-199.0000,0.0000,-0.1209
17148487,101288.812500,21.320000,3.013313,0.2100,0.2100,9.6000,0.0625,-0.0625,0.0000,0.0000,0.0000,0.0000,16382.0000,176.0000,-199.0000,0.0000,-0.1601
17178065,101278.820312,21.309999,3.845444,0.2300,0.2000,9.5700,0.0000,-0.1250,0.0000,0.0000,0.0000,0.0000,16382.0000,176.0000,-199.0000,0.0000,-0.0372
17207663,101286.656250,21.309999,3.192747,0.2200,0.2000,9.5800,0.1250,-0.1250,0.0625,0.0000,0.0000,0.0000,16382.0000,176.0000,-199.0000,0.0000,-0.0650
17246879,101282.742188,21.309999,3.519090,0.2400,0.2000,9.5600,0.0625,0.0000,-0.0625,0.0000,0.0000,0.0000,16382.0000,176.0000,-199.0000,0.0000,-0.0258
17277363,101293.812500,21.330000,2.597018,0.2500,0.2000,9.5800,0.0625,-0.2500,0.0625,0.0000,0.0000,0.0000,16382.0000,176.0000,-199.0000,0.0000,-0.0514
17307479,101280.968750,21.320000,3.666507,0.2300,0.2000,9.5500,0.1250,-0.0625,-0.0625,0.0000,0.0000,0.0000,16382.0000,176.0000,-199.0000,0.0000,-0.1003
17338859,101284.890625,21.320000,3.340159,0.2400,0.2000,9.5700,0.0625,0.0625,-0.0625,0.0000,0.0000,0.0000,16382.0000,176.0000,-199.0000,0.0000,-0.1056
17368436,101279.890625,21.320000,3.756483,0.2200,0.2000,9.5500,0.0000,0.1250,-0.0625,0.0000,0.0000,0.0000,16382.0000,176.0000,-199.0000,0.0000,-0.0420
17398091,101290.578125,21.309999,2.866413,0.2400,0.2100,9.5400,0.1250,-0.0625,0.0625,0.0000,0.0000,0.0000,16382.0000,176.0000,-199.0000,0.0000,-0.0942
17427895,101279.890625,21.320000,3.756483,0.2100,0.2100,9.5800,0.0625,0.0625,0.0000,0.0000,0.0000,0.0000,16382.0000,176.0000,-199.0000,0.0000,-0.0540
17459291,101292.726562,21.320000,2.687494,0.2300,0.2000,9.5700,-0.0625,0.0000,-0.0625,0.0000,0.0000,0.0000,16382.0000,176.0000,-199.0000,0.0000,-0.0800
17488842,101288.812500,21.320000,3.013313,0.2200,0.2000,9.5500,-0.0625,0.0625,0.1250,0.0000,0.0000,0.0000,16382.0000,176.0000,-199.0000,0.0000,-0.1727
17518445,101282.742188,21.309999,3.519090,0.2100,0.2000,9.5800,0.0000,0.0000,0.0625,0.0000,0.0000,0.0000,16382.0000,176.0000,-199.0000,0.0000,-0.1615
17549869,101288.812500,21.320000,3.013313,0.2500,0.2000,9.5800,-0.0625,0.0000,-0.0625,0.0000,0.0000,0.0000,16382.0000,176.0000,-199.0000,0.0000,-0.2150
17579434,101283.812500,21.320000,3.429624,0.2800,0.1800,9.5900,0.0000,0.1250,0.0000,0.0000,0.0000,0.0000,16382.0000,176.0000,-199.0000,0.0000,-0.1270
17609086,101284.890625,21.320000,3.340159,0.2200,0.2000,9.6100,0.0625,0.0625,-0.0625,0.0000,0.0000,0.0000,16382.0000,176.0000,-199.0000,0.0000,-0.1513
17638581,101291.656250,21.320000,2.776445,0.2300,0.2000,9.5800,0.0000,0.3125,-0.0625,0.0000,0.0000,0.0000,16382.0000,176.0000,-199.0000,0.0000,-0.1899
17677836,101288.812500,21.320000,3.013313,0.2400,0.2100,9.5900,-0.0625,-0.0625,0.0000,0.0000,0.0000,0.0000,16382.0000,176.0000,-199.0000,0.0000,-0.2559
17708538,101278.820312,21.309999,3.845444,0.2400,0.2000,9.5700,0.0000,-0.2500,-0.1250,0.0000,0.0000,0.0000,16382.0000,176.0000,-199.0000,0.0000,-0.1663
17738772,101280.968750,21.320000,3.666507,0.2200,0.1900,9.5800,0.0000,0.1250,-0.1250,0.0000,0.0000,0.0000,16382.0000,176.0000,-199.0000,0.0000,-0.1818
17770136,101279.890625,21.320000,3.756483,0.2300,0.2200,9.5800,0.0000,0.0000,0.0625,0.0000,0.0000,0.0000,16382.0000,176.0000,-199.0000,0.0000,-0.0880
17809922,101287.742188,21.320000,3.102267,0.2300,0.2000,9.5700,-0.1250,0.1250,0.0000,0.0000,0.0000,0.0000,16382.0000,176.0000,-199.0000,0.0000,-0.0678
17858867,101276.671875,21.309999,4.024384,0.2300,0.2000,9.6000,-0.0625,-0.1875,0.1250,0.0000,0.0000,0.0000,16382.0000,176.0000,-199.0000,0.0000,-0.0244
17890766,101286.656250,21.309999,3.192747,0.2200,0.2100,9.5800,-0.0625,0.0000,0.0625,0.0000,0.0000,0.0000,16382.0000,176.0000,-199.0000,0.0000,0.0048
17920375,101277.046875,21.320000,3.993374,0.2300,0.2100,9.5700,-0.1250,0.0000,0.0000,0.0000,0.0000,0.0000,16382.0000,176.0000,-199.0000,0.0000,0.0546
17949919,101278.820312,21.309999,3.845444,0.2400,0.2000,9.5600,-0.0625,-0.1250,-0.0625,0.0000,0.0000,0.0000,16382.0000,176.0000,-199.0000,0.0000,0.0903
17979616,101278.117188,21.330000,3.903904,0.2300,0.2100,9.6000,0.0000,-0.0625,-0.0625,0.0000,0.0000,0.0000,16382.0000,176.0000,-199.0000,0.0000,0.2066
18011047,101279.890625,21.320000,3.756483,0.2300,0.2000,9.5600,-0.0625,-0.2500,0.0000,0.0000,0.0000,0.0000,16382.0000,176.0000,-199.0000,0.0000,0.2827
18040645,101270.976562,21.309999,4.498690,0.2300,0.2000,9.5800,-0.1875,-0.0625,0.0625,0.0000,0.0000,0.0000,16382.0000,176.0000,-199.0000,0.0000,0.3332
18070252,101279.890625,21.320000,3.756483,0.2400,0.2100,9.5700,-0.1250,-0.0625,0.0000,0.0000,0.0000,0.0000,16382.0000,176.0000,-199.0000,0.0000,0.3161
18109499,101287.742188,21.320000,3.102267,0.2400,0.2100,9.5500,0.1250,0.1250,-0.1250,0.0000,0.0000,0.0000,16382.0000,176.0000,-199.0000,0.0000,0.2685
18139970,101275.968750,21.320000,4.082844,0.2300,0.2000,9.5700,-0.1250,-0.1250,0.0625,0.0000,0.0000,0.0000,16382.0000,176.0000,-199.0000,0.0000,0.3600
18170093,101287.742188,21.320000,3.102267,0.2500,0.2000,9.5700,0.0000,0.0000,0.0000,0.0000,0.0000,0.0000,16382.0000,176.0000,-199.0000,0.0000,0.2809
18232394,101291.656250,21.320000,2.776445,0.2200,0.2000,9.5700,0.0000,0.0625,-0.1250,0.0000,0.0000,0.0000,16382.0000,176.0000,-199.0000,0.0000,0.2588
18261923,101275.968750,21.320000,4.082844,0.2200,0.2000,9.5800,-0.0625,-0.0625,-0.0625,0.0000,0.0000,0.0000,16382.0000,176.0000,-199.0000,0.0000,0.2630
18291452,101282.742188,21.309999,3.519090,0.2400,0.1900,9.5600,0.0000,0.0000,0.0000,0.0000,0.0000,0.0000,16382.0000,176.0000,-199.0000,0.0000,0.2381
18320968,101280.968750,21.320000,3.666507,0.2400,0.1900,9.5700,0.0625,0.0000,-0.0625,0.0000,0.0000,0.0000,16382.0000,176.0000,-199.0000,0.0000,0.2031
18352219,101279.890625,21.320000,3.756483,0.2300,0.2000,9.5800,0.0625,0.0000,0.0625,0.0000,0.0000,0.0000,16382.0000,176.0000,-199.0000,0.0000,0.1864
18381823,101283.812500,21.320000,3.429624,0.2100,0.2200,9.6100,-0.0625,0.0625,-0.0625,0.0000,0.0000,0.0000,16382.0000,176.0000,-199.0000,0.0000,0.0991
18411432,101280.968750,21.320000,3.666507,0.2500,0.2100,9.5800,0.0000,0.0625,0.0000,0.0000,0.0000,0.0000,16382.0000,176.0000,-199.0000,0.0000,0.0836
18442827,101288.812500,21.320000,3.013313,0.2500,0.2000,9.5700,-0.1875,0.1875,0.0000,0.0000,0.0000,0.0000,16382.0000,176.0000,-199.0000,0.0000,0.0812
18472366,101282.039062,21.330000,3.577548,0.2200,0.2100,9.5700,-0.0625,0.0000,0.0000,0.0000,0.0000,0.0000,16382.0000,176.0000,-199.0000,0.0000,0.0081
18501948,101289.890625,21.330000,2.923343,0.2200,0.1900,9.6000,-0.1875,0.1875,-0.0625,0.0000,0.0000,0.0000,16382.0000,176.0000,-199.0000,0.0000,-0.0014
18531533,101280.968750,21.320000,3.666507,0.2400,0.2000,9.5900,0.0625,0.1250,0.0000,0.0000,0.0000,0.0000,16382.0000,176.0000,-199.0000,0.0000,0.0781
18570801,101293.812500,21.330000,2.597018,0.2100,0.2100,9.5800,0.0625,-0.1250,0.0000,0.0000,0.0000,0.0000,16382.0000,176.0000,-199.0000,0.0000,-0.0604
18601307,101288.812500,21.320000,3.013313,0.2300,0.2100,9.5700,0.0625,-0.1250,0.0625,0.0000,0.0000,0.0000,16382.0000,176.0000,-199.0000,0.0000,-0.0907
18631456,101289.890625,21.330000,2.923343,0.2300,0.2000,9.5700,0.0000,-0.0625,0.0000,0.0000,0.0000,0.0000,16382.0000,176.0000,-199.0000,0.0000,-0.1549
18662838,101280.968750,21.320000,3.666507,0.2200,0.2000,9.5600,-0.0625,-0.0625,0.0625,0.0000,0.0000,0.0000,16382.0000,176.0000,-199.0000,0.0000,-0.1752
18692453,101280.968750,21.320000,3.666507,0.2200,0.2000,9.5700,-0.0625,-0.1250,0.0625,0.0000,0.0000,0.0000,16382.0000,176.0000,-199.0000,0.0000,-0.1545
18722080,101283.812500,21.320000,3.429624,0.2100,0.1900,9.5700,-0.0625,0.0000,-0.0625,0.0000,0.0000,0.0000,16382.0000,176.0000,-199.0000,0.0000,-0.1793
18753460,101288.812500,21.320000,3.013313,0.2300,0.1900,9.5900,0.0000,-0.1875,0.0000,0.0000,0.0000,0.0000,16382.0000,176.0000,-199.0000,0.0000,-0.1793
18783080,101277.046875,21.320000,3.993374,0.2200,0.2000,9.5700,0.0000,0.0625,0.0000,0.0000,0.0000,0.0000,16382.0000,176.0000,-199.0000,0.0000,-0.1407
18812655,101288.812500,21.320000,3.013313,0.2400,0.2000,9.5900,0.0625,-0.1875,0.0000,0.0000,0.0000,0.0000,16382.0000,176.0000,-199.0000,0.0000,-0.1281
18842287,101280.968750,21.320000,3.666507,0.2200,0.2100,9.5700,-0.0625,0.0000,0.0625,0.0000,0.0000,0.0000,16382.0000,176.0000,-199.0000,0.0000,-0.1310
18873683,101283.117188,21.330000,3.487574,0.2300,0.2100,9.5700,0.0000,0.0625,0.0000,0.0000,0.0000,0.0000,16382.0000,176.0000,-199.0000,0.0000,-0.0598
18903228,101279.890625,21.320000,3.756483,0.2400,0.2000,9.6000,0.0000,0.1875,-0.1875,0.0000,0.0000,0.0000,16382.0000,176.0000,-199.0000,0.0000,0.0127
18932835,101279.890625,21.320000,3.756483,0.2200,0.1900,9.5800,0.0000,0.2500,-0.0625,0.0000,0.0000,0.0000,16382.0000,176.0000,-199.0000,0.0000,0.0877
18972064,101292.726562,21.320000,2.687494,0.2200,0.2000,9.5700,0.0000,0.1875,-0.1250,0.0000,0.0000,0.0000,16382.0000,176.0000,-199.0000,0.0000,0.0112
19002564,101280.968750,21.320000,3.666507,0.2400,0.1900,9.5600,-0.0625,-0.2500,0.1250,0.0000,0.0000,0.0000,16382.0000,176.0000,-199.0000,0.0000,-0.0048
19032713,101283.117188,21.330000,3.487574,0.2200,0.2000,9.6000,-0.1250,0.0625,0.0000,0.0000,0.0000,0.0000,16382.0000,176.0000,-199.0000,0.0000,0.0064
19062780,101272.046875,21.320000,4.409724,0.2200,0.2100,9.6000,-0.0625,0.0000,-0.0625,0.0000,0.0000,0.0000,16382.0000,176.0000,-199.0000,0.0000,0.1115
19094216,101284.890625,21.320000,3.340159,0.2200,0.2000,9.5800,0.0625,-0.0625,-0.1250,0.0000,0.0000,0.0000,16382.0000,176.0000,-199.0000,0.0000,0.0397
19123775,101288.812500,21.320000,3.013313,0.2400,0.2100,9.5800,0.0000,0.1250,0.0000,0.0000,0.0000,0.0000,16382.0000,176.0000,-199.0000,0.0000,0.0498
19153366,101280.968750,21.320000,3.666507,0.2200,0.2000,9.5700,0.0000,0.0000,0.0000,0.0000,0.0000,0.0000,16382.0000,176.0000,-199.0000,0.0000,0.0367
19184666,101280.968750,21.320000,3.666507,0.2200,0.1900,9.5500,-0.0625,-0.0625,0.0000,0.0000,0.0000,0.0000,16382.0000,176.0000,-199.0000,0.0000,0.0499
19214257,101288.812500,21.320000,3.013313,0.2200,0.2000,9.6000,0.0000,0.0000,0.0000,0.0000,0.0000,0.0000,16382.0000,176.0000,-199.0000,0.0000,-0.0179
19243860,101288.812500,21.320000,3.013313,0.2100,0.2100,9.5700,-0.1250,-0.1250,0.0625,0.0000,0.0000,0.0000,16382.0000,176.0000,-199.0000,0.0000,-0.0969
19283012,101288.812500,21.320000,3.013313,0.2400,0.1900,9.5700,-0.0625,0.0000,0.0625,0.0000,0.0000,0.0000,16382.0000,176.0000,-199.0000,0.0000,-0.0644
19313566,101288.812500,21.320000,3.013313,0.2200,0.2000,9.5700,-0.0625,-0.0625,0.0000,0.0000,0.0000,0.0000,16382.0000,176.0000,-199.0000,0.0000,-0.1130
19343721,101284.890625,21.320000,3.340159,0.2500,0.2100,9.5800,0.1250,0.1250,0.0000,0.0000,0.0000,0.0000,16382.0000,176.0000,-199.0000,0.0000,-0.1212
19373838,101280.968750,21.320000,3.666507,0.2200,0.2100,9.5900,0.0000,0.1250,0.0625,0.0000,0.0000,0.0000,16382.0000,176.0000,-199.0000,0.0000,-0.1938
19413375,101282.039062,21.330000,3.577548,0.2300,0.1900,9.5900,-0.1250,0.1250,-0.0625,0.0000,0.0000,0.0000,16382.0000,176.0000,-199.0000,0.0000,-0.1795
19443858,101284.890625,21.320000,3.340159,0.2400,0.1900,9.5900,-0.1250,0.0000,-0.0625,0.0000,0.0000,0.0000,16382.0000,176.0000,-199.0000,0.0000,-0.1332
19473992,101279.890625,21.320000,3.756483,0.2200,0.2000,9.5900,0.0625,-0.0625,0.0625,0.0000,0.0000,0.0000,16382.0000,176.0000,-199.0000,0.0000,-0.1354
19505385,101287.742188,21.320000,3.102267,0.2300,0.2000,9.5800,-0.0625,0.1250,0.0000,0.0000,0.0000,0.0000,16382.0000,176.0000,-199.0000,0.0000,-0.1740
19535013,101278.820312,21.309999,3.845444,0.2400,0.1900,9.5900,0.0625,-0.0625,-0.0625,0.0000,0.0000,0.0000,16382.0000,176.0000,-199.0000,0.0000,-0.0908
19564641,101280.968750,21.320000,3.666507,0.2200,0.1900,9.5400,-0.0625,0.0625,-0.0625,0.0000,0.0000,0.0000,16382.0000,176.0000,-199.0000,0.0000,-0.0208
19594495,101296.648438,21.320000,2.360668,0.2300,0.2000,9.6000,0.0625,-0.0625,-0.1250,0.0000,0.0000,0.0000,16382.0000,176.0000,-199.0000,0.0000,-0.0581
19625889,101278.820312,21.309999,3.845444,0.2100,0.2100,9.5900,0.0000,-0.1250,-0.1250,0.0000,0.0000,0.0000,16382.0000,176.0000,-199.0000,0.0000,0.0382
19655503,101287.742188,21.320000,3.102267,0.2300,0.2100,9.5700,0.0625,-0.1250,-0.0625,0.0000,0.0000,0.0000,16382.0000,176.0000,-199.0000,0.0000,0.0275
19685177,101295.578125,21.320000,2.449616,0.2500,0.2000,9.5600,0.0000,-0.0625,0.0000,0.0000,0.0000,0.0000,16382.0000,176.0000,-199.0000,0.0000,-0.0812
19716529,101288.812500,21.320000,3.013313,0.2500,0.2100,9.5900,0.1250,-0.1875,0.0000,0.0000,0.0000,0.0000,16382.0000,176.0000,-199.0000,0.0000,-0.1162
19746105,101284.890625,21.320000,3.340159,0.2300,0.2000,9.5700,-0.0625,0.0000,-0.0625,0.0000,0.0000,0.0000,16382.0000,176.0000,-199.0000,0.0000,-0.1210
19775668,101282.742188,21.309999,3.519090,0.2300,0.2100,9.5900,0.1250,0.1250,-0.0625,0.0000,0.0000,0.0000,16382.0000,176.0000,-199.0000,0.0000,-0.1596
19814781,101287.742188,21.320000,3.102267,0.2300,0.2000,9.5800,0.0625,0.0000,0.0625,0.0000,0.0000,0.0000,16382.0000,176.0000,-199.0000,0.0000,-0.1399
19845104,101284.890625,21.320000,3.340159,0.2200,0.1900,9.5700,0.1250,0.2500,-0.1875,0.0000,0.0000,0.0000,16382.0000,176.0000,-199.0000,0.0000,-0.1869
19875270,101283.812500,21.320000,3.429624,0.2200,0.2100,9.5800,0.0625,-0.0625,0.0000,0.0000,0.0000,0.0000,16382.0000,176.0000,-199.0000,0.0000,-0.2058
19905346,101296.648438,21.320000,2.360668,0.2400,0.2000,9.5700,0.1250,0.1250,0.0000,0.0000,0.0000,0.0000,16382.0000,176.0000,-199.0000,0.0000,-0.1779
19936796,101282.039062,21.330000,3.577548,0.2300,0.1800,9.5900,0.0000,0.0000,0.0000,0.0000,0.0000,0.0000,16382.0000,176.0000,-199.0000,0.0000,-0.2077
19966357,101274.898438,21.309999,4.172316,0.2200,0.2100,9.5800,0.0000,0.0000,0.0000,0.0000,0.0000,0.0000,16382.0000,176.0000,-199.0000,0.0000,-0.1108
19995976,101283.812500,21.320000,3.429624,0.2300,0.2200,9.5700,-0.1250,0.0000,-0.0625,0.0000,0.0000,0.0000,16382.0000,176.0000,-199.0000,0.0000,-0.0211
20027449,101282.742188,21.309999,3.519090,0.2200,0.2000,9.5600,-0.0625,0.0625,-0.0625,0.0000,0.0000,0.0000,16382.0000,176.0000,-199.0000,0.0000,0.0306
20057046,101287.742188,21.320000,3.102267,0.2400,0.1900,9.5700,-0.1875,-0.0625,0.0000,0.0000,0.0000,0.0000,16382.0000,176.0000,-199.0000,0.0000,0.0033
20086679,101280.968750,21.320000,3.666507,0.2200,0.2100,9.5600,0.0000,0.0625,0.0000,0.0000,0.0000,0.0000,16382.0000,176.0000,-199.0000,0.0000,0.0180
20116254,101280.968750,21.320000,3.666507,0.2500,0.1900,9.5600,-0.1250,-0.1875,0.1250,0.0000,0.0000,0.0000,16382.0000,176.0000,-199.0000,0.0000,0.0530
20147660,101284.890625,21.320000,3.340159,0.2200,0.2000,9.5700,-0.1250,0.0000,-0.1250,0.0000,0.0000,0.0000,16382.0000,176.0000,-199.0000,0.0000,0.0465
20177247,101287.742188,21.320000,3.102267,0.2200,0.1900,9.5600,0.0000,0.1875,0.0625,0.0000,0.0000,0.0000,16382.0000,176.0000,-199.0000,0.0000,0.0102
20206906,101280.968750,21.320000,3.666507,0.2300,0.2000,9.5700,-0.0625,0.0000,0.0000,0.0000,0.0000,0.0000,16382.0000,176.0000,-199.0000,0.0000,0.1408
20245920,101279.890625,21.320000,3.756483,0.2300,0.2200,9.5700,0.1250,0.0000,0.0000,0.0000,0.0000,0.0000,16382.0000,176.0000,-199.0000,0.0000,0.1569
20276402,101286.656250,21.309999,3.192747,0.2300,0.2000,9.5900,0.0000,0.0000,-0.1250,0.0000,0.0000,0.0000,16382.0000,176.0000,-199.0000,0.0000,0.0636
20306517,101284.890625,21.320000,3.340159,0.2400,0.2000,9.5500,-0.0625,0.0000,-0.0625,0.0000,0.0000,0.0000,16382.0000,176.0000,-199.0000,0.0000,0.0482
20337880,101287.742188,21.320000,3.102267,0.2400,0.2000,9.5600,-0.1250,0.1250,0.0625,0.0000,0.0000,0.0000,16382.0000,176.0000,-199.0000,0.0000,0.0243
20367507,101284.890625,21.320000,3.340159,0.2200,0.2000,9.5800,0.0625,-0.0625,0.0000,0.0000,0.0000,0.0000,16382.0000,176.0000,-199.0000,0.0000,0.0416
20397109,101288.812500,21.320000,3.013313,0.2100,0.2100,9.5600,-0.0625,-0.0625,-0.0625,0.0000,0.0000,0.0000,16382.0000,176.0000,-199.0000,0.0000,-0.0107
20426995,101287.742188,21.320000,3.102267,0.2300,0.2200,9.5900,-0.0625,-0.1250,-0.0625,0.0000,0.0000,0.0000,16382.0000,176.0000,-199.0000,0.0000,-0.0594
20458363,101280.968750,21.320000,3.666507,0.2600,0.2000,9.5800,0.0625,-0.1875,0.0625,0.0000,0.0000,0.0000,16382.0000,176.0000,-199.0000,0.0000,-0.0250
20487977,101277.046875,21.320000,3.993374,0.2300,0.2100,9.5700,0.0000,-0.1250,0.0000,0.0000,0.0000,0.0000,16382.0000,176.0000,-199.0000,0.0000,0.0594
20517588,101292.726562,21.320000,2.687494,0.2300,0.2000,9.5800,0.0000,-0.0625,0.0000,0.0000,0.0000,0.0000,16382.0000,176.0000,-199.0000,0.0000,-0.0385
20548987,101292.726562,21.320000,2.687494,0.2300,0.2000,9.5500,-0.1875,-0.0625,-0.0625,0.0000,0.0000,0.0000,16382.0000,176.0000,-199.0000,0.0000,-0.1258
20578573,101283.117188,21.330000,3.487574,0.2200,0.2000,9.5700,-0.0625,0.1875,0.0000,0.0000,0.0000,0.0000,16382.0000,176.0000,-199.0000,0.0000,-0.0963
20608200,101277.046875,21.320000,3.993374,0.2100,0.2000,9.5600,0.0625,0.1250,0.0000,0.0000,0.0000,0.0000,16382.0000,176.0000,-199.0000,0.0000,-0.0227
20637779,101282.039062,21.330000,3.577548,0.2400,0.2000,9.5800,-0.1250,0.1250,0.0000,0.0000,0.0000,0.0000,16382.0000,176.0000,-199.0000,0.0000,0.0201
20677238,101296.648438,21.320000,2.360668,0.2300,0.2000,9.5700,-0.0625,-0.1875,0.0000,0.0000,0.0000,0.0000,16382.0000,176.0000,-199.0000,0.0000,-0.0648
20707707,101279.890625,21.320000,3.756483,0.2400,0.2100,9.5900,-0.1875,-0.0625,0.1250,0.0000,0.0000,0.0000,16382.0000,176.0000,-199.0000,0.0000,0.0077
20737817,101288.812500,21.320000,3.013313,0.2300,0.2200,9.5900,-0.0625,0.1250,-0.1250,0.0000,0.0000,0.0000,16382.0000,176.0000,-199.0000,0.0000,0.0119
20769209,101287.742188,21.320000,3.102267,0.2300,0.2000,9.5800,0.0625,0.0000,-0.0625,0.0000,0.0000,0.0000,16382.0000,176.0000,-199.0000,0.0000,-0.0463
20798827,101288.812500,21.320000,3.013313,0.2200,0.2000,9.5800,0.0000,-0.1250,0.0625,0.0000,0.0000,0.0000,16382.0000,176.0000,-199.0000,0.0000,-0.1443
20828413,101292.726562,21.320000,2.687494,0.2200,0.2100,9.6000,-0.0625,-0.1250,0.0625,0.0000,0.0000,0.0000,16382.0000,176.0000,-199.0000,0.0000,-0.1378
20859803,101287.742188,21.320000,3.102267,0.2300,0.2000,9.5700,-0.0625,-0.1250,-0.0625,0.0000,0.0000,0.0000,16382.0000,176.0000,-199.0000,0.0000,-0.0981
20889417,101282.742188,21.309999,3.519090,0.2300,0.1900,9.5900,0.1250,-0.0625,0.0000,0.0000,0.0000,0.0000,16382.0000,176.0000,-199.0000,0.0000,-0.0986
20918991,101280.968750,21.320000,3.666507,0.2400,0.2000,9.5800,0.0000,-0.1250,0.0000,0.0000,0.0000,0.0000,16382.0000,176.0000,-199.0000,0.0000,-0.1312
20948612,101280.968750,21.320000,3.666507,0.2400,0.2100,9.5600,0.0000,-0.1250,0.0000,0.0000,0.0000,0.0000,16382.0000,176.0000,-199.0000,0.0000,-0.1241
20980013,101288.812500,21.320000,3.013313,0.2400,0.2000,9.5700,-0.1250,0.1875,0.0000,0.0000,0.0000,0.0000,16382.0000,176.0000,-199.0000,0.0000,-0.0523
21009644,101287.742188,21.320000,3.102267,0.2200,0.2100,9.5800,-0.0625,0.2500,0.0000,0.0000,0.0000,0.0000,16382.0000,176.0000,-199.0000,0.0000,-0.1047
21039243,101278.820312,21.309999,3.845444,0.2500,0.2000,9.5900,-0.0625,0.1250,0.0000,0.0000,0.0000,0.0000,16382.0000,176.0000,-199.0000,0.0000,-0.0363
21101493,101288.812500,21.320000,3.013313,0.2300,0.2000,9.5800,-0.0625,0.0000,0.0625,0.0000,0.0000,0.0000,16382.0000,176.0000,-199.0000,0.0000,-0.0286
21131665,101278.117188,21.330000,3.903904,0.2200,0.2100,9.5700,0.0000,-0.0625,0.0625,0.0000,0.0000,0.0000,16382.0000,176.0000,-199.0000,0.0000,0.0558
21161242,101282.039062,21.330000,3.577548,0.2500,0.1900,9.5700,-0.1250,0.1875,0.0000,0.0000,0.0000,0.0000,16382.0000,176.0000,-199.0000,0.0000,0.1204
21190858,101288.812500,21.320000,3.013313,0.2300,0.2100,9.5700,0.1250,0.1250,0.0000,0.0000,0.0000,0.0000,16382.0000,176.0000,-199.0000,0.0000,0.1282
21222291,101273.132812,21.320000,4.319234,0.2300,0.2100,9.5800,0.0000,0.0625,-0.1250,0.0000,0.0000,0.0000,16382.0000,176.0000,-199.0000,0.0000,0.1838
21251941,101289.890625,21.330000,2.923343,0.2300,0.2000,9.5800,-0.1250,0.1250,0.0000,0.0000,0.0000,0.0000,16382.0000,176.0000,-199.0000,0.0000,0.1001
21281547,101288.812500,21.320000,3.013313,0.2200,0.1700,9.5600,0.0625,0.0000,0.0625,0.0000,0.0000,0.0000,16382.0000,176.0000,-199.0000,0.0000,0.0347
21369122,101284.890625,21.320000,3.340159,0.2100,0.2000,9.5700,0.0000,0.1875,-0.2500,0.0000,0.0000,0.0000,16382.0000,176.0000,-199.0000,0.0000,0.0674
21399742,101283.812500,21.320000,3.429624,0.2400,0.2000,9.5800,0.1250,0.1250,0.0000,0.0000,0.0000,0.0000,16382.0000,176.0000,-199.0000,0.0000,0.1019
21430093,101279.890625,21.320000,3.756483,0.2200,0.2200,9.6000,0.0625,0.0625,0.0000,0.0000,0.0000,0.0000,16382.0000,176.0000,-199.0000,0.0000,0.0800
21461520,101283.812500,21.320000,3.429624,0.2300,0.2200,9.5800,-0.0625,-0.0625,0.1250,0.0000,0.0000,0.0000,16382.0000,176.0000,-199.0000,0.0000,0.1198
21491124,101293.812500,21.330000,2.597018,0.2300,0.1900,9.5800,0.1875,0.0000,-0.0625,0.0000,0.0000,0.0000,16382.0000,176.0000,-199.0000,0.0000,0.0058
21520728,101283.812500,21.320000,3.429624,0.2500,0.2100,9.5900,0.0000,-0.0625,0.0625,0.0000,0.0000,0.0000,16382.0000,176.0000,-199.0000,0.0000,-0.0304
21550476,101288.812500,21.320000,3.013313,0.2300,0.2000,9.5900,0.0625,0.0000,0.0000,0.0000,0.0000,0.0000,16382.0000,176.0000,-199.0000,0.0000,-0.0191
21590081,101286.656250,21.309999,3.192747,0.2300,0.2100,9.5700,0.0625,-0.0625,-0.0625,0.0000,0.0000,0.0000,16382.0000,176.0000,-199.0000,0.0000,-0.1122
21620567,101288.812500,21.320000,3.013313,0.2300,0.2100,9.5800,0.0625,0.0000,0.0000,0.0000,0.0000,0.0000,16382.0000,176.0000,-199.0000,0.0000,-0.0949
21650749,101278.820312,21.309999,3.845444,0.2200,0.2000,9.5900,-0.0625,0.0625,-0.0625,0.0000,0.0000,0.0000,16382.0000,176.0000,-199.0000,0.0000,-0.0182
21682108,101280.968750,21.320000,3.666507,0.2300,0.1900,9.5900,-0.1250,0.0000,-0.0625,0.0000,0.0000,0.0000,16382.0000,176.0000,-199.0000,0.0000,0.0032
21711726,101272.046875,21.320000,4.409724,0.2400,0.2000,9.5800,0.1250,0.0625,0.0625,0.0000,0.0000,0.0000,16382.0000,176.0000,-199.0000,0.0000,0.0863
21741297,101280.968750,21.320000,3.666507,0.2200,0.2000,9.5800,-0.0625,0.0000,0.0000,0.0000,0.0000,0.0000,16382.0000,176.0000,-199.0000,0.0000,0.0773
21771151,101286.656250,21.309999,3.192747,0.2200,0.1800,9.5800,-0.0625,-0.1250,-0.0625,0.0000,0.0000,0.0000,16382.0000,176.0000,-199.0000,0.0000,0.0566
21802549,101279.890625,21.320000,3.756483,0.2300,0.2000,9.5800,0.0000,-0.1250,0.1250,0.0000,0.0000,0.0000,16382.0000,176.0000,-199.0000,0.0000,0.1595
21832153,101288.812500,21.320000,3.013313,0.2400,0.2100,9.5600,-0.0625,-0.2500,-0.0625,0.0000,0.0000,0.0000,16382.0000,176.0000,-199.0000,0.0000,0.1309
21861722,101283.812500,21.320000,3.429624,0.2200,0.2100,9.5700,0.0000,-0.1250,0.0625,0.0000,0.0000,0.0000,16382.0000,176.0000,-199.0000,0.0000,0.1791
21893110,101292.726562,21.320000,2.687494,0.2200,0.2100,9.5800,-0.1250,0.0000,0.0000,0.0000,0.0000,0.0000,16382.0000,176.0000,-199.0000,0.0000,0.1386
21922735,101283.812500,21.320000,3.429624,0.2300,0.2100,9.6000,0.0625,0.0625,0.0625,0.0000,0.0000,0.0000,16382.0000,176.0000,-199.0000,0.0000,0.1785
21952321,101288.812500,21.320000,3.013313,0.2500,0.2000,9.6000,0.0625,0.1250,0.0625,0.0000,0.0000,0.0000,16382.0000,176.0000,-199.0000,0.0000,0.0970
21991347,101279.890625,21.320000,3.756483,0.2200,0.2000,9.5600,0.0625,0.0625,0.0625,0.0000,0.0000,0.0000,16382.0000,176.0000,-199.0000,0.0000,0.0977
22021836,101282.039062,21.330000,3.577548,0.2300,0.2000,9.5700,0.0000,0.0625,-0.0625,0.0000,0.0000,0.0000,16382.0000,176.0000,-199.0000,0.0000,0.0032
22051933,101279.890625,21.320000,3.756483,0.2200,0.2100,9.5700,0.0000,-0.0625,0.0625,0.0000,0.0000,0.0000,16382.0000,176.0000,-199.0000,0.0000,-0.0009
22082065,101275.968750,21.320000,4.082844,0.2400,0.1900,9.5800,0.0000,0.0000,0.0000,0.0000,0.0000,0.0000,16382.0000,176.0000,-199.0000,0.0000,0.0798
22113423,101275.968750,21.320000,4.082844,0.2300,0.2000,9.5800,0.0000,0.1250,0.0000,0.0000,0.0000,0.0000,16382.0000,176.0000,-199.0000,0.0000,0.1107
22143004,101284.890625,21.320000,3.340159,0.2400,0.2100,9.5800,0.0625,0.0625,0.0625,0.0000,0.0000,0.0000,16382.0000,176.0000,-199.0000,0.0000,0.1303
22172587,101277.046875,21.320000,3.993374,0.2300,0.2000,9.5400,0.0000,0.0000,-0.0625,0.0000,0.0000,0.0000,16382.0000,176.0000,-199.0000,0.0000,0.1605
22204011,101273.132812,21.320000,4.319234,0.2300,0.2000,9.5800,0.0625,0.0000,0.0000,0.0000,0.0000,0.0000,16382.0000,176.0000,-199.0000,0.0000,0.3071
22233578,101286.656250,21.309999,3.192747,0.2500,0.2000,9.5500,0.0000,0.0625,-0.0625,0.0000,0.0000,0.0000,16382.0000,176.0000,-199.0000,0.0000,0.2994
22263207,101284.890625,21.320000,3.340159,0.2300,0.2000,9.5500,0.0000,0.0625,0.0625,0.0000,0.0000,0.0000,16382.0000,176.0000,-199.0000,0.0000,0.3368
22292759,101284.890625,21.320000,3.340159,0.2200,0.2100,9.5800,-0.1250,0.0625,0.0625,0.0000,0.0000,0.0000,16382.0000,176.0000,-199.0000,0.0000,0.2756
22324142,101275.968750,21.320000,4.082844,0.2500,0.1900,9.5700,0.0000,-0.0625,0.0000,0.0000,0.0000,0.0000,16382.0000,176.0000,-199.0000,0.0000,0.3196
22353746,101282.039062,21.330000,3.577548,0.2200,0.2100,9.5700,-0.1250,0.1875,-0.0625,0.0000,0.0000,0.0000,16382.0000,176.0000,-199.0000,0.0000,0.2904
22383324,101288.812500,21.320000,3.013313,0.2100,0.2100,9.5800,0.1250,-0.1250,0.0625,0.0000,0.0000,0.0000,16382.0000,176.0000,-199.0000,0.0000,0.1853
22422580,101292.726562,21.320000,2.687494,0.2500,0.1900,9.5500,-0.0625,0.0000,-0.1250,0.0000,0.0000,0.0000,16382.0000,176.0000,-199.0000,0.0000,0.0522
22453106,101288.812500,21.320000,3.013313,0.2300,0.2000,9.5900,0.0000,0.0000,-0.0625,0.0000,0.0000,0.0000,16382.0000,176.0000,-199.0000,0.0000,0.0130
22483202,101280.968750,21.320000,3.666507,0.2200,0.2100,9.5900,-0.0625,-0.1250,0.0000,0.0000,0.0000,0.0000,16382.0000,176.0000,-199.0000,0.0000,-0.0309
22514581,101274.898438,21.309999,4.172316,0.2200,0.1800,9.5700,-0.1250,-0.1250,0.1250,0.0000,0.0000,0.0000,16382.0000,176.0000,-199.0000,0.0000,-0.0587
22544219,101288.812500,21.320000,3.013313,0.2400,0.2100,9.5600,-0.1250,0.0625,0.0000,0.0000,0.0000,0.0000,16382.0000,176.0000,-199.0000,0.0000,-0.0636
22573771,101283.812500,21.320000,3.429624,0.2300,0.2000,9.5800,0.0000,-0.0625,0.1250,0.0000,0.0000,0.0000,16382.0000,176.0000,-199.0000,0.0000,-0.0499
22603694,101288.812500,21.320000,3.013313,0.2300,0.2200,9.5800,0.0625,0.0000,-0.0625,0.0000,0.0000,0.0000,16382.0000,176.0000,-199.0000,0.0000,-0.0826
22635116,101288.812500,21.320000,3.013313,0.2300,0.2100,9.5600,0.0000,-0.1250,-0.0625,0.0000,0.0000,0.0000,16382.0000,176.0000,-199.0000,0.0000,-0.1877
22664663,101287.742188,21.320000,3.102267,0.2400,0.2000,9.5900,-0.0625,-0.1875,-0.0625,0.0000,0.0000,0.0000,16382.0000,176.0000,-199.0000,0.0000,-0.2204
22694315,101273.132812,21.320000,4.319234,0.2200,0.1900,9.5600,0.0625,-0.1250,0.0000,0.0000,0.0000,0.0000,16382.0000,176.0000,-199.0000,0.0000,-0.1159
22733974,101283.812500,21.320000,3.429624,0.2300,0.2100,9.5700,-0.0625,0.0625,0.0625,0.0000,0.0000,0.0000,16382.0000,176.0000,-199.0000,0.0000,-0.0322
22764194,101284.890625,21.320000,3.340159,0.2200,0.2000,9.5800,-0.1250,0.0000,-0.0625,0.0000,0.0000,0.0000,16382.0000,176.0000,-199.0000,0.0000,0.0052
22794158,101284.890625,21.320000,3.340159,0.2300,0.2000,9.5900,0.0000,-0.0625,0.0000,0.0000,0.0000,0.0000,16382.0000,176.0000,-199.0000,0.0000,-0.0340
22824287,101280.968750,21.320000,3.666507,0.2200,0.2000,9.6000,0.0625,-0.0625,0.0000,0.0000,0.0000,0.0000,16382.0000,176.0000,-199.0000,0.0000,-0.0715
22863893,101288.812500,21.320000,3.013313,0.2200,0.2100,9.5900,0.0000,0.0000,-0.0625,0.0000,0.0000,0.0000,16382.0000,176.0000,-199.0000,0.0000,-0.0733
22894402,101293.812500,21.330000,2.597018,0.2300,0.1900,9.5800,-0.1250,0.1875,0.0000,0.0000,0.0000,0.0000,16382.0000,176.0000,-199.0000,0.0000,-0.1482
22924535,101287.039062,21.330000,3.161231,0.2300,0.1900,9.5700,0.0000,0.0000,-0.0625,0.0000,0.0000,0.0000,16382.0000,176.0000,-199.0000,0.0000,-0.1299
22955921,101282.039062,21.330000,3.577548,0.2100,0.2000,9.5800,-0.0625,0.0000,0.1250,0.0000,0.0000,0.0000,16382.0000,176.0000,-199.0000,0.0000,-0.0764
22985520,101282.039062,21.330000,3.577548,0.2200,0.1900,9.5700,-0.1250,-0.1250,0.0625,0.0000,0.0000,0.0000,16382.0000,176.0000,-199.0000,0.0000,-0.0253
23015115,101285.968750,21.330000,3.250186,0.2300,0.1900,9.6000,-0.0625,-0.1250,-0.0625,0.0000,0.0000,0.0000,16382.0000,176.0000,-199.0000,0.0000,-0.1286
23046517,101279.890625,21.320000,3.756483,0.2300,0.1900,9.5600,0.0000,-0.0625,0.0625,0.0000,0.0000,0.0000,16382.0000,176.0000,-199.0000,0.0000,-0.1191
23076125,101283.117188,21.330000,3.487574,0.2300,0.2000,9.5700,0.0000,0.1250,0.0000,0.0000,0.0000,0.0000,16382.0000,176.0000,-199.0000,0.0000,-0.1055
23105735,101288.812500,21.320000,3.013313,0.2500,0.2100,9.5700,-0.1250,0.0625,0.0000,0.0000,0.0000,0.0000,16382.0000,176.0000,-199.0000,0.0000,-0.1382
23135402,101280.968750,21.320000,3.666507,0.2500,0.2000,9.6000,0.0000,0.1250,0.0000,0.0000,0.0000,0.0000,16382.0000,176.0000,-199.0000,0.0000,-0.1477
23166779,101285.968750,21.330000,3.250186,0.2300,0.1900,9.5800,-0.0625,0.0625,0.0000,0.0000,0.0000,0.0000,16382.0000,176.0000,-199.0000,0.0000,-0.1287
23196372,101290.960938,21.330000,2.834391,0.2200,0.2100,9.6000,0.0625,0.0000,0.0000,0.0000,0.0000,0.0000,16382.0000,176.0000,-199.0000,0.0000,-0.0848
23225975,101285.968750,21.330000,3.250186,0.2400,0.2200,9.5600,0.0625,-0.1875,0.0625,0.0000,0.0000,0.0000,16382.0000,176.0000,-199.0000,0.0000,-0.0676
23265197,101288.812500,21.320000,3.013313,0.2400,0.1900,9.5800,0.0625,0.0625,-0.0625,0.0000,0.0000,0.0000,16382.0000,176.0000,-199.0000,0.0000,-0.0960
23295680,101280.968750,21.320000,3.666507,0.2400,0.1700,9.6100,0.0000,-0.1250,0.1250,0.0000,0.0000,0.0000,16382.0000,176.0000,-199.0000,0.0000,-0.0872
23325825,101280.968750,21.320000,3.666507,0.2200,0.1900,9.7500,-0.0625,0.0000,-0.0625,0.0000,0.0000,0.0000,16382.0000,176.0000,-199.0000,0.0000,-0.0550
23355943,101273.132812,21.320000,4.319234,0.2000,0.2800,9.4900,0.0000,0.1875,0.0000,0.0000,0.0000,0.0000,16382.0000,176.0000,-199.0000,0.0000,-0.0100
23387380,101290.960938,21.330000,2.834391,0.2200,0.2000,9.6200,0.0000,0.0000,-0.3125,0.0000,0.0000,0.0000,16382.0000,176.0000,-199.0000,0.0000,-0.0717
23416946,101288.812500,21.320000,3.013313,0.2400,0.1400,9.6000,-0.0625,-0.0625,0.0000,0.0000,0.0000,0.0000,16382.0000,176.0000,-199.0000,0.0000,-0.0634
23446580,101287.742188,21.320000,3.102267,0.2600,0.1800,9.6100,-0.0625,0.1250,0.0625,0.0000,0.0000,0.0000,16382.0000,176.0000,-199.0000,0.0000,-0.1281
23477952,101296.648438,21.320000,2.360668,0.1800,0.2400,9.5900,0.0625,0.0625,0.0625,0.0000,0.0000,0.0000,16382.0000,176.0000,-199.0000,0.0000,-0.1957
23507549,101280.968750,21.320000,3.666507,0.2500,0.1900,9.5700,0.1250,-0.0625,-0.0625,0.0000,0.0000,0.0000,16382.0000,176.0000,-199.0000,0.0000,-0.1255
23537262,101288.812500,21.320000,3.013313,0.2500,0.1200,9.5900,-0.0625,0.1875,0.0000,0.0000,0.0000,0.0000,16382.0000,176.0000,-199.0000,0.0000,-0.1344
23568609,101292.726562,21.320000,2.687494,0.2600,0.1800,9.6000,-0.1250,0.0625,0.0625,0.0000,0.0000,0.0000,16382.0000,176.0000,-199.0000,0.0000,-0.1491
23598283,101288.812500,21.320000,3.013313,0.1900,0.2500,9.5800,-0.0625,0.0000,0.0000,0.0000,0.0000,0.0000,16382.0000,176.0000,-199.0000,0.0000,-0.1996
23627850,101279.890625,21.320000,3.756483,0.2200,0.2300,9.5600,0.0000,0.0625,0.0000,0.0000,0.0000,0.0000,16382.0000,176.0000,-199.0000,0.0000,-0.1841
23657509,101279.203125,21.330000,3.813418,0.2200,0.1800,9.5700,0.0625,-0.1250,-0.0625,0.0000,0.0000,0.0000,16382.0000,176.0000,-199.0000,0.0000,-0.2293
23696508,101280.968750,21.320000,3.666507,0.2400,0.1800,9.5700,0.0000,-0.0625,-0.1875,0.0000,0.0000,0.0000,16382.0000,176.0000,-199.0000,0.0000,-0.1526
23726985,101284.890625,21.320000,3.340159,0.2400,0.2200,9.5800,0.0000,0.1875,0.0000,0.0000,0.0000,0.0000,16382.0000,176.0000,-199.0000,0.0000,-0.1068
23757119,101284.890625,21.320000,3.340159,0.2400,0.2200,9.5700,0.0000,0.0000,-0.0625,0.0000,0.0000,0.0000,16382.0000,176.0000,-199.0000,0.0000,-0.0635
23788488,101292.726562,21.320000,2.687494,0.2100,0.1800,9.5800,0.0000,0.1250,-0.1250,0.0000,0.0000,0.0000,16382.0000,176.0000,-199.0000,0.0000,-0.0207
23818126,101284.890625,21.320000,3.340159,0.2500,0.1600,9.5700,-0.1250,0.0625,-0.0625,0.0000,0.0000,0.0000,16382.0000,176.0000,-199.0000,0.0000,-0.0533
23847757,101279.890625,21.320000,3.756483,0.2200,0.2200,9.5800,0.0000,-0.1250,-0.0625,0.0000,0.0000,0.0000,16382.0000,176.0000,-199.0000,0.0000,0.0127
23877559,101280.968750,21.320000,3.666507,0.2200,0.2100,9.5500,0.0625,0.0625,0.0000,0.0000,0.0000,0.0000,16382.0000,176.0000,-199.0000,0.0000,0.1189
23908965,101288.812500,21.320000,3.013313,0.2200,0.1800,9.5700,-0.1250,0.0625,0.0000,0.0000,0.0000,0.0000,16382.0000,176.0000,-199.0000,0.0000,0.1302
23938556,101278.820312,21.309999,3.845444,0.2400,0.1800,9.5900,0.0625,0.1875,0.0000,0.0000,0.0000,0.0000,16382.0000,176.0000,-199.0000,0.0000,0.1225
23968163,101283.812500,21.320000,3.429624,0.2400,0.2000,9.6100,-0.0625,0.1250,0.0625,0.0000,0.0000,0.0000,16382.0000,176.0000,-199.0000,0.0000,0.0692
23999543,101286.656250,21.309999,3.192747,0.2000,0.2100,9.6000,0.1250,0.0000,-0.0625,0.0000,0.0000,0.0000,16382.0000,176.0000,-199.0000,0.0000,0.0183
24029165,101280.968750,21.320000,3.666507,0.2300,0.2000,9.5800,0.0625,-0.1250,0.0000,0.0000,0.0000,0.0000,16382.0000,176.0000,-199.0000,0.0000,0.0509
24058761,101286.656250,21.309999,3.192747,0.2400,0.1900,9.5900,0.0000,-0.1250,-0.0625,0.0000,0.0000,0.0000,16382.0000,176.0000,-199.0000,0.0000,0.0558
24097795,101291.656250,21.320000,2.776445,0.2200,0.2200,9.6000,0.0000,-0.3750,0.0625,0.0000,0.0000,0.0000,16382.0000,176.0000,-199.0000,0.0000,0.0694
24128140,101280.968750,21.320000,3.666507,0.2200,0.2200,9.6100,0.0000,-0.1250,0.0625,0.0000,0.0000,0.0000,16382.0000,176.0000,-199.0000,0.0000,0.0973
24158292,101296.648438,21.320000,2.360668,0.2500,0.1900,9.5500,0.0625,-0.0625,-0.0625,0.0000,0.0000,0.0000,16382.0000,176.0000,-199.0000,0.0000,-0.0292
24188414,101286.656250,21.309999,3.192747,0.2200,0.1800,9.5200,-0.0625,0.1875,0.0000,0.0000,0.0000,0.0000,16382.0000,176.0000,-199.0000,0.0000,-0.0802
24219768,101288.812500,21.320000,3.013313,0.2500,0.2100,9.6100,-0.0625,-0.1875,0.0625,0.0000,0.0000,0.0000,16382.0000,176.0000,-199.0000,0.0000,-0.0784
24249368,101283.812500,21.320000,3.429624,0.2100,0.2200,9.5600,-0.0625,-0.1250,-0.1250,0.0000,0.0000,0.0000,16382.0000,176.0000,-199.0000,0.0000,-0.1022
24278982,101282.742188,21.309999,3.519090,0.2200,0.2100,9.6100,0.0000,-0.1250,0.0625,0.0000,0.0000,0.0000,16382.0000,176.0000,-199.0000,0.0000,-0.0951
24310361,101279.890625,21.320000,3.756483,0.2300,0.2000,9.5900,0.0000,-0.0625,-0.0625,0.0000,0.0000,0.0000,16382.0000,176.0000,-199.0000,0.0000,-0.0470
24340019,101284.890625,21.320000,3.340159,0.2100,0.2000,9.6100,0.0000,-0.2500,0.0625,0.0000,0.0000,0.0000,16382.0000,176.0000,-199.0000,0.0000,-0.0797
24369618,101287.742188,21.320000,3.102267,0.2100,0.2100,9.5600,0.0625,-0.0625,0.0625,0.0000,0.0000,0.0000,16382.0000,176.0000,-199.0000,0.0000,-0.0774
24409433,101280.968750,21.320000,3.666507,0.2200,0.2200,9.6000,-0.0625,0.0000,0.0000,0.0000,0.0000,0.0000,16382.0000,176.0000,-199.0000,0.0000,-0.0015
24468615,101296.648438,21.320000,2.360668,0.2200,0.1900,9.6000,0.0000,-0.0625,0.0000,0.0000,0.0000,0.0000,16382.0000,176.0000,-199.0000,0.0000,-0.1273
24520548,101290.578125,21.309999,2.866413,0.2100,0.2100,9.5700,-0.0625,-0.1250,0.0625,0.0000,0.0000,0.0000,16382.0000,176.0000,-199.0000,0.0000,-0.0709
24550026,101280.968750,21.320000,3.666507,0.2200,0.1900,9.5900,0.0625,0.1250,-0.0625,0.0000,0.0000,0.0000,16382.0000,176.0000,-199.0000,0.0000,-0.0253
24589164,101284.890625,21.320000,3.340159,0.2200,0.2000,9.5700,-0.0625,-0.1250,-0.1250,0.0000,0.0000,0.0000,16382.0000,176.0000,-199.0000,0.0000,0.0122
24619611,101273.132812,21.320000,4.319234,0.2200,0.2100,9.5900,0.0000,-0.0625,0.0625,0.0000,0.0000,0.0000,16382.0000,176.0000,-199.0000,0.0000,0.0797
24649948,101284.890625,21.320000,3.340159,0.2000,0.2000,9.5800,0.0625,-0.2500,-0.0625,0.0000,0.0000,0.0000,16382.0000,176.0000,-199.0000,0.0000,0.0702
24681296,101274.898438,21.309999,4.172316,0.2300,0.1900,9.5500,0.0625,0.0625,-0.0625,0.0000,0.0000,0.0000,16382.0000,176.0000,-199.0000,0.0000,0.0981
24710829,101277.046875,21.320000,3.993374,0.2200,0.1900,9.5600,-0.1250,-0.1250,0.1250,0.0000,0.0000,0.0000,16382.0000,176.0000,-199.0000,0.0000,0.1438
24740451,101288.812500,21.320000,3.013313,0.2100,0.2100,9.5800,0.0625,-0.1250,0.0625,0.0000,0.0000,0.0000,16382.0000,176.0000,-199.0000,0.0000,0.1480
24770279,101278.820312,21.309999,3.845444,0.2200,0.2200,9.5400,-0.0625,0.1250,0.0000,0.0000,0.0000,0.0000,16382.0000,176.0000,-199.0000,0.0000,0.1539
24801628,101284.890625,21.320000,3.340159,0.2400,0.1900,9.5600,-0.0625,0.0625,0.0000,0.0000,0.0000,0.0000,16382.0000,176.0000,-199.0000,0.0000,0.2418
24831245,101283.812500,21.320000,3.429624,0.2100,0.1900,9.5700,-0.1250,-0.1875,0.0625,0.0000,0.0000,0.0000,16382.0000,176.0000,-199.0000,0.0000,0.2945
24860897,101279.890625,21.320000,3.756483,0.2300,0.2200,9.5800,0.0000,-0.1250,0.0000,0.0000,0.0000,0.0000,16382.0000,176.0000,-199.0000,0.0000,0.2886
24892266,101288.812500,21.320000,3.013313,0.2000,0.2100,9.5700,-0.0625,0.0000,-0.0625,0.0000,0.0000,0.0000,16382.0000,176.0000,-199.0000,0.0000,0.2690
24921880,101274.898438,21.309999,4.172316,0.2200,0.1700,9.5700,-0.1250,-0.1250,-0.0625,0.0000,0.0000,0.0000,16382.0000,176.0000,-199.0000,0.0000,0.2442
24951548,101287.742188,21.320000,3.102267,0.2300,0.2000,9.5600,0.0625,0.1250,0.0625,0.0000,0.0000,0.0000,16382.0000,176.0000,-199.0000,0.0000,0.2448
24990625,101286.656250,21.309999,3.192747,0.2300,0.2100,9.5500,-0.0625,0.1875,0.0000,0.0000,0.0000,0.0000,16382.0000,176.0000,-199.0000,0.0000,0.1396
25020958,101287.742188,21.320000,3.102267,0.2400,0.2100,9.5600,0.1250,-0.1875,-0.1250,0.0000,0.0000,0.0000,16382.0000,176.0000,-199.0000,0.0000,0.0488
25051122,101279.890625,21.320000,3.756483,0.2200,0.1700,9.5300,0.0625,-0.1250,-0.0625,0.0000,0.0000,0.0000,16382.0000,176.0000,-199.0000,0.0000,0.1100
25081129,101280.968750,21.320000,3.666507,0.2200,0.2800,9.6100,0.0000,-0.2500,-0.0625,0.0000,0.0000,0.0000,16382.0000,176.0000,-199.0000,0.0000,0.0660
25112541,101287.742188,21.320000,3.102267,0.2000,0.1600,9.5500,0.1250,-0.2500,-0.0625,0.0000,0.0000,0.0000,16382.0000,176.0000,-199.0000,0.0000,0.0535
25142226,101279.890625,21.320000,3.756483,0.3100,0.2000,9.5800,0.1250,0.0625,-0.1250,0.0000,0.0000,0.0000,16382.0000,176.0000,-199.0000,0.0000,0.0713
25171829,101278.820312,21.309999,3.845444,0.1400,0.2000,9.6000,0.0000,-0.0625,0.0625,0.0000,0.0000,0.0000,16382.0000,176.0000,-199.0000,0.0000,0.0570
25203229,101278.820312,21.309999,3.845444,0.2600,0.2200,9.5900,0.0000,0.1250,-0.0625,0.0000,0.0000,0.0000,16382.0000,176.0000,-199.0000,0.0000,0.1236
25232780,101288.812500,21.320000,3.013313,0.2300,0.2000,9.5500,0.0000,0.0625,0.0625,0.0000,0.0000,0.0000,16382.0000,176.0000,-199.0000,0.0000,0.0226
25262353,101279.890625,21.320000,3.756483,0.2200,0.2100,9.5500,0.0000,-0.0625,0.0000,0.0000,0.0000,0.0000,16382.0000,176.0000,-199.0000,0.0000,0.0891
25291972,101274.898438,21.309999,4.172316,0.1800,0.1900,9.5600,0.0625,0.0625,0.1250,0.0000,0.0000,0.0000,16382.0000,176.0000,-199.0000,0.0000,0.1770
25323277,101280.968750,21.320000,3.666507,0.2700,0.2100,9.5700,0.0000,0.0625,-0.0625,0.0000,0.0000,0.0000,16382.0000,176.0000,-199.0000,0.0000,0.2269
25352886,101288.812500,21.320000,3.013313,0.2200,0.1900,9.5600,0.0000,-0.0625,0.0000,0.0000,0.0000,0.0000,16382.0000,176.0000,-199.0000,0.0000,0.1591
25382484,101275.968750,21.320000,4.082844,0.2500,0.1700,9.5700,-0.0625,0.0000,-0.1875,0.0000,0.0000,0.0000,16382.0000,176.0000,-199.0000,0.0000,0.1728
25421806,101284.890625,21.320000,3.340159,0.2000,0.2000,9.5800,0.1250,0.0625,0.0000,0.0000,0.0000,0.0000,16382.0000,176.0000,-199.0000,0.0000,0.1966
25452263,101278.820312,21.309999,3.845444,0.2500,0.2200,9.6000,0.1875,0.0000,-0.1250,0.0000,0.0000,0.0000,16382.0000,176.0000,-199.0000,0.0000,0.2037
25482396,101278.820312,21.309999,3.845444,0.2100,0.2000,9.5800,-0.0625,-0.0625,0.0625,0.0000,0.0000,0.0000,16382.0000,176.0000,-199.0000,0.0000,0.2001
25512576,101274.898438,21.309999,4.172316,0.2100,0.2000,9.5900,-0.0625,0.0000,-0.1250,0.0000,0.0000,0.0000,16382.0000,176.0000,-199.0000,0.0000,0.2096
25544002,101287.742188,21.320000,3.102267,0.2300,0.1900,9.6000,-0.0625,-0.0625,0.0000,0.0000,0.0000,0.0000,16382.0000,176.0000,-199.0000,0.0000,0.2334
25573599,101286.656250,21.309999,3.192747,0.2300,0.2100,9.5800,-0.0625,-0.1875,-0.1250,0.0000,0.0000,0.0000,16382.0000,176.0000,-199.0000,0.0000,0.1818
25603214,101289.890625,21.330000,2.923343,0.2700,0.2000,9.5700,-0.0625,0.0625,-0.1875,0.0000,0.0000,0.0000,16382.0000,176.0000,-199.0000,0.0000,0.0623
25634644,101282.039062,21.330000,3.577548,0.2100,0.2000,9.5800,-0.1250,0.1875,0.0000,0.0000,0.0000,0.0000,16382.0000,176.0000,-199.0000,0.0000,0.0551
25664277,101283.812500,21.320000,3.429624,0.2200,0.1900,9.6000,0.1250,-0.1875,0.0000,0.0000,0.0000,0.0000,16382.0000,176.0000,-199.0000,0.0000,0.0920
25693883,101284.890625,21.320000,3.340159,0.2300,0.2200,9.5900,0.0000,0.0000,0.0625,0.0000,0.0000,0.0000,16382.0000,176.0000,-199.0000,0.0000,0.0065
25725310,101280.968750,21.320000,3.666507,0.2300,0.2000,9.5900,0.0625,0.1250,0.0000,0.0000,0.0000,0.0000,16382.0000,176.0000,-199.0000,0.0000,0.0391
25754938,101279.890625,21.320000,3.756483,0.2200,0.1900,9.5600,0.1250,-0.2500,-0.0625,0.0000,0.0000,0.0000,16382.0000,176.0000,-199.0000,0.0000,0.0023
25784556,101280.968750,21.320000,3.666507,0.2300,0.1900,9.6000,0.0000,0.0000,0.0625,0.0000,0.0000,0.0000,16382.0000,176.0000,-199.0000,0.0000,-0.0251
25814184,101278.820312,21.309999,3.845444,0.1800,0.2100,9.5700,0.0000,-0.0625,0.0625,0.0000,0.0000,0.0000,16382.0000,176.0000,-199.0000,0.0000,-0.0744
25853214,101283.812500,21.320000,3.429624,0.2400,0.2100,9.5900,-0.0625,0.1250,0.0625,0.0000,0.0000,0.0000,16382.0000,176.0000,-199.0000,0.0000,-0.0416
25883639,101284.890625,21.320000,3.340159,0.2300,0.1900,9.5700,-0.0625,-0.1250,0.0000,0.0000,0.0000,0.0000,16382.0000,176.0000,-199.0000,0.0000,-0.0233
25913739,101286.656250,21.309999,3.192747,0.2200,0.2100,9.5800,0.0625,-0.0625,-0.0625,0.0000,0.0000,0.0000,16382.0000,176.0000,-199.0000,0.0000,0.0149
25945120,101272.046875,21.320000,4.409724,0.1800,0.2200,9.6000,-0.1250,-0.0625,0.0000,0.0000,0.0000,0.0000,16382.0000,176.0000,-199.0000,0.0000,0.0767
25974687,101280.968750,21.320000,3.666507,0.2500,0.2000,9.5800,0.0625,0.0625,0.0000,0.0000,0.0000,0.0000,16382.0000,176.0000,-199.0000,0.0000,0.0891
26004265,101282.039062,21.330000,3.577548,0.2200,0.1900,9.5800,-0.1250,-0.1250,-0.0625,0.0000,0.0000,0.0000,16382.0000,176.0000,-199.0000,0.0000,0.1146
26034192,101279.890625,21.320000,3.756483,0.2000,0.2000,9.5500,0.0000,-0.0625,0.0625,0.0000,0.0000,0.0000,16382.0000,176.0000,-199.0000,0.0000,0.0957
26065568,101287.742188,21.320000,3.102267,0.2200,0.2200,9.5800,0.0625,0.0625,0.0000,0.0000,0.0000,0.0000,16382.0000,176.0000,-199.0000,0.0000,0.0256
26095194,101282.742188,21.309999,3.519090,0.2400,0.2000,9.5900,0.0625,-0.3125,0.0000,0.0000,0.0000,0.0000,16382.0000,176.0000,-199.0000,0.0000,0.0138
26124678,101279.890625,21.320000,3.756483,0.2300,0.1800,9.5700,0.0000,0.0000,-0.0625,0.0000,0.0000,0.0000,16382.0000,176.0000,-199.0000,0.0000,-0.0034
26164345,101286.656250,21.309999,3.192747,0.2200,0.1900,9.5700,0.0000,-0.0625,-0.0625,0.0000,0.0000,0.0000,16382.0000,176.0000,-199.0000,0.0000,-0.0046
26194577,101285.593750,21.309999,3.281194,0.2400,0.1900,9.5800,0.0000,-0.1875,0.0625,0.0000,0.0000,0.0000,16382.0000,176.0000,-199.0000,0.0000,-0.0093
26224770,101279.890625,21.320000,3.756483,0.2400,0.2100,9.5800,0.0000,0.1250,-0.0625,0.0000,0.0000,0.0000,16382.0000,176.0000,-199.0000,0.0000,0.0554
26264415,101290.578125,21.309999,2.866413,0.2000,0.1800,9.5700,0.0625,0.1250,-0.1250,0.0000,0.0000,0.0000,16382.0000,176.0000,-199.0000,0.0000,-0.0764
26294928,101283.812500,21.320000,3.429624,0.2100,0.2100,9.5900,0.0000,0.0000,-0.0625,0.0000,0.0000,0.0000,16382.0000,176.0000,-199.0000,0.0000,-0.1084
26325077,101279.890625,21.320000,3.756483,0.2200,0.2000,9.5800,-0.0625,0.0000,0.0625,0.0000,0.0000,0.0000,16382.0000,176.0000,-199.0000,0.0000,-0.0888
26355223,101291.656250,21.320000,2.776445,0.2200,0.2200,9.5700,0.0625,-0.1250,-0.1250,0.0000,0.0000,0.0000,16382.0000,176.0000,-199.0000,0.0000,-0.1755
26386595,101287.742188,21.320000,3.102267,0.2200,0.1900,9.5800,0.1250,-0.1875,-0.0625,0.0000,0.0000,0.0000,16382.0000,176.0000,-199.0000,0.0000,-0.1689
26416201,101279.890625,21.320000,3.756483,0.2300,0.2100,9.5700,0.0625,0.0625,-0.1250,0.0000,0.0000,0.0000,16382.0000,176.0000,-199.0000,0.0000,-0.1452
26445850,101286.656250,21.309999,3.192747,0.2200,0.2000,9.5600,0.0000,-0.0625,0.0625,0.0000,0.0000,0.0000,16382.0000,176.0000,-199.0000,0.0000,-0.2052
26477214,101288.812500,21.320000,3.013313,0.2200,0.2000,9.5600,0.0625,0.0000,0.0000,0.0000,0.0000,0.0000,16382.0000,176.0000,-199.0000,0.0000,-0.1999
26506836,101293.429688,21.309999,2.628532,0.2300,0.2000,9.5700,0.0000,-0.0625,0.0625,0.0000,0.0000,0.0000,16382.0000,176.0000,-199.0000,0.0000,-0.2557
26536443,101280.968750,21.320000,3.666507,0.2400,0.2000,9.5700,0.0625,0.0625,0.0000,0.0000,0.0000,0.0000,16382.0000,176.0000,-199.0000,0.0000,-0.2742
26566067,101280.968750,21.320000,3.666507,0.2200,0.2100,9.5400,0.0000,0.0000,-0.0625,0.0000,0.0000,0.0000,16382.0000,176.0000,-199.0000,0.0000,-0.2055
26597470,101286.656250,21.309999,3.192747,0.2300,0.2100,9.6100,0.0000,0.0625,-0.0625,0.0000,0.0000,0.0000,16382.0000,176.0000,-199.0000,0.0000,-0.2179
26627130,101294.500000,21.309999,2.539582,0.2200,0.2000,9.5900,0.0000,0.1875,0.0000,0.0000,0.0000,0.0000,16382.0000,176.0000,-199.0000,0.0000,-0.3170
26656699,101277.046875,21.320000,3.993374,0.2200,0.1900,9.5900,-0.0625,0.0625,0.0000,0.0000,0.0000,0.0000,16382.0000,176.0000,-199.0000,0.0000,-0.2132
26695806,101292.726562,21.320000,2.687494,0.2100,0.2000,9.5600,0.0625,-0.1875,0.0000,0.0000,0.0000,0.0000,16382.0000,176.0000,-199.0000,0.0000,-0.2333
26726175,101282.742188,21.309999,3.519090,0.2200,0.2000,9.5700,0.1875,0.1250,0.0000,0.0000,0.0000,0.0000,16382.0000,176.0000,-199.0000,0.0000,-0.2505
26756276,101279.890625,21.320000,3.756483,0.2100,0.2000,9.5700,-0.0625,-0.2500,0.0000,0.0000,0.0000,0.0000,16382.0000,176.0000,-199.0000,0.0000,-0.1923
26787675,101282.742188,21.309999,3.519090,0.2200,0.1900,9.5900,0.0000,-0.2500,0.0000,0.0000,0.0000,0.0000,16382.0000,176.0000,-199.0000,0.0000,-0.1519
26817303,101287.742188,21.320000,3.102267,0.2300,0.2000,9.5800,0.0000,-0.0625,-0.0625,0.0000,0.0000,0.0000,16382.0000,176.0000,-199.0000,0.0000,-0.0914
26846900,101295.578125,21.320000,2.449616,0.2200,0.2100,9.5600,0.0625,-0.0625,0.0000,0.0000,0.0000,0.0000,16382.0000,176.0000,-199.0000,0.0000,-0.1786
26876744,101280.968750,21.320000,3.666507,0.2200,0.2000,9.5500,0.0625,-0.1250,0.0000,0.0000,0.0000,0.0000,16382.0000,176.0000,-199.0000,0.0000,-0.1786
26908132,101279.890625,21.320000,3.756483,0.2100,0.2000,9.5700,-0.0625,0.0000,-0.0625,0.0000,0.0000,0.0000,16382.0000,176.0000,-199.0000,0.0000,-0.1371
26937734,101292.726562,21.320000,2.687494,0.2300,0.2000,9.5400,0.0000,0.0000,0.0000,0.0000,0.0000,0.0000,16382.0000,176.0000,-199.0000,0.0000,-0.0944
26967381,101288.812500,21.320000,3.013313,0.2400,0.2100,9.6000,-0.1250,0.0000,-0.0625,0.0000,0.0000,0.0000,16382.0000,176.0000,-199.0000,0.0000,-0.1859
26998760,101278.820312,21.309999,3.845444,0.2200,0.2100,9.5600,-0.0625,0.1250,0.0000,0.0000,0.0000,0.0000,16382.0000,176.0000,-199.0000,0.0000,-0.0701
27028380,101278.820312,21.309999,3.845444,0.2300,0.1900,9.5700,0.0625,-0.0625,0.0000,0.0000,0.0000,0.0000,16382.0000,176.0000,-199.0000,0.0000,-0.0375
27057981,101294.500000,21.309999,2.539582,0.2400,0.2000,9.5800,0.0625,0.1250,-0.0625,0.0000,0.0000,0.0000,16382.0000,176.0000,-199.0000,0.0000,-0.1265
27097011,101279.890625,21.320000,3.756483,0.2200,0.2000,9.5900,-0.0625,0.0000,-0.0625,0.0000,0.0000,0.0000,16382.0000,176.0000,-199.0000,0.0000,-0.1158
27127382,101290.578125,21.309999,2.866413,0.2400,0.2000,9.5900,0.0000,0.0000,0.0625,0.0000,0.0000,0.0000,16382.0000,176.0000,-199.0000,0.0000,-0.1329
27157503,101286.656250,21.309999,3.192747,0.2100,0.1900,9.5500,0.0000,0.1875,-0.0625,0.0000,0.0000,0.0000,16382.0000,176.0000,-199.0000,0.0000,-0.0640
27187636,101286.656250,21.309999,3.192747,0.4700,0.7000,9.5700,-0.4375,0.3125,-19.0625,0.0000,0.0000,0.0000,16382.0000,175.0000,-200.0000,-50.0000,-0.1037
27219104,101282.742188,21.309999,3.519090,0.1600,0.6000,9.5700,-0.4375,8.4375,-1.8750,0.0000,0.0000,0.0000,16382.0000,178.0000,-179.0000,-76.0000,-0.1292
27248701,101278.820312,21.309999,3.845444,0.9300,-0.9900,9.6400,2.0625,6.6250,1.8125,0.0000,0.0000,0.0000,16382.0000,187.0000,-156.0000,-67.0000,-0.0235
27278301,101288.812500,21.320000,3.013313,0.1600,-0.5400,9.6400,-6.6875,7.5000,0.0000,0.0000,0.0000,0.0000,16382.0000,170.0000,-130.0000,-59.0000,-0.0104
27309698,101279.890625,21.320000,3.756483,-0.4800,-0.3100,10.4600,-4.2500,13.7500,-10.3125,0.0000,0.0000,0.0000,16383.0000,156.0000,-84.0000,-90.0000,-0.0193
27339316,101281.656250,21.309999,3.609065,-1.8100,-0.4000,10.2700,6.0000,17.5000,-16.1875,0.0000,0.0000,0.0000,16383.0000,133.0000,-7.0000,-142.0000,-0.0418
27368987,101274.898438,21.309999,4.172316,0.2800,-0.1200,12.3800,56.6875,21.0625,-27.0625,0.0000,0.0000,0.0000,16379.0000,301.0000,67.0000,-246.0000,0.1149
27400356,101286.656250,21.309999,3.192747,-0.5400,0.6900,12.5800,31.3750,16.6875,-38.7500,0.0000,0.0000,0.0000,16371.0000,495.0000,146.0000,-392.0000,0.0633
27430011,101286.656250,21.309999,3.192747,-1.0200,1.9500,14.1600,21.2500,-13.7500,-45.8750,0.0000,0.0000,0.0000,16363.0000,582.0000,148.0000,-582.0000,0.0989
27459613,101279.890625,21.320000,3.756483,0.0200,0.9300,10.8100,-16.3750,-35.3125,-23.1875,0.0000,0.0000,0.0000,16359.0000,565.0000,11.0000,-707.0000,0.1440
27489189,101278.820312,21.309999,3.845444,0.5700,0.5400,12.2600,-20.8750,15.3750,-30.1875,0.0000,0.0000,0.0000,16357.0000,473.0000,1.0000,-817.0000,0.2205
27528156,101274.203125,21.330000,4.230269,0.0700,1.9900,13.0400,3.3125,37.9375,-44.7500,0.0000,0.0000,0.0000,16342.0000,477.0000,204.0000,-1044.0000,0.2804
27590388,101290.578125,21.309999,2.866413,-0.6600,1.0500,11.4900,17.7500,33.9375,-76.5000,0.0000,0.0000,0.0000,16285.0000,760.0000,491.0000,-1555.0000,0.1967
27641394,101287.742188,21.320000,3.102267,-0.6600,1.5900,12.2200,21.8125,25.1875,-94.1250,0.0000,0.0000,0.0000,16201.0000,930.0000,645.0000,-2166.0000,0.2187
27673563,101277.742188,21.309999,3.935421,-0.9600,0.8200,11.7800,-22.1250,10.0000,-69.8750,0.0000,0.0000,0.0000,16153.0000,866.0000,753.0000,-2490.0000,0.2199
27711589,101280.593750,21.309999,3.698024,0.0600,-0.5600,11.0600,-25.0000,-34.6250,-74.3750,0.0000,0.0000,0.0000,16103.0000,684.0000,689.0000,-2860.0000,0.2252
27759168,101284.507812,21.309999,3.371675,-0.2800,-0.2200,8.7300,61.4375,-62.1875,-59.5625,0.0000,0.0000,0.0000,16019.0000,847.0000,278.0000,-3323.0000,0.1528
27791149,101268.828125,21.309999,4.677641,0.3100,1.1500,8.5100,55.6250,-85.5000,-49.6875,0.0000,0.0000,0.0000,15959.0000,1024.0000,-83.0000,-3563.0000,0.2716
27820769,101286.656250,21.309999,3.192747,0.3500,1.4100,7.2400,46.2500,-85.3125,-57.0625,0.0000,0.0000,0.0000,15891.0000,1155.0000,-467.0000,-3790.0000,0.2734
27850341,101275.593750,21.299999,4.114363,0.5000,2.2000,8.0900,21.1250,-88.0625,-69.4375,0.0000,0.0000,0.0000,15801.0000,1195.0000,-821.0000,-4081.0000,0.3020
27881693,101283.429688,21.299999,3.461649,0.8000,2.0500,9.3300,-3.1875,-83.1250,-67.3125,0.0000,0.0000,0.0000,15704.0000,1149.0000,-1153.0000,-4378.0000,0.2517
27911287,101277.359375,21.290001,3.966939,1.2100,0.8200,9.2200,-43.5000,-67.3750,-65.3750,0.0000,0.0000,0.0000,15613.0000,963.0000,-1383.0000,-4671.0000,0.2147
27940917,101268.828125,21.309999,4.677641,1.5200,0.8600,7.0800,-28.8125,-71.4375,-62.0625,0.0000,0.0000,0.0000,15520.0000,748.0000,-1601.0000,-4945.0000,0.3774
27970499,101268.453125,21.290001,4.709161,1.9500,2.5100,7.0900,-17.0625,-57.8125,-57.6875,0.0000,0.0000,0.0000,15417.0000,629.0000,-1821.0000,-5201.0000,0.4994
28009667,101276.289062,21.290001,4.056410,2.1300,1.2300,6.4700,-15.6875,-39.5625,-57.1250,0.0000,0.0000,0.0000,15290.0000,513.0000,-2004.0000,-5510.0000,0.4924
28040068,101276.289062,21.290001,4.056410,2.6000,1.3700,7.0500,-9.1875,-7.3125,-43.6250,0.0000,0.0000,0.0000,15215.0000,468.0000,-2057.0000,-5700.0000,0.5223
28070162,101277.359375,21.290001,3.966939,1.7500,1.6000,7.9300,-23.6875,22.0000,-37.0625,0.0000,0.0000,0.0000,15168.0000,423.0000,-1960.0000,-5861.0000,0.5663
28101588,101272.367188,21.290001,4.382780,2.2100,0.0000,6.4100,10.0625,12.3750,-31.7500,0.0000,0.0000,0.0000,15125.0000,473.0000,-1902.0000,-5986.0000,0.5094
28131226,101272.367188,21.290001,4.382780,1.8700,1.6100,8.8700,28.2500,37.3125,-42.6250,0.0000,0.0000,0.0000,15077.0000,618.0000,-1829.0000,-6115.0000,0.5933
28160895,101280.210938,21.290001,3.729541,0.2800,1.1100,10.2500,6.8750,75.1875,-45.8750,0.0000,0.0000,0.0000,15030.0000,800.0000,-1608.0000,-6270.0000,0.5536
28192306,101278.062500,21.280001,3.908479,0.7200,1.2200,10.4300,-9.7500,83.1250,-57.7500,0.0000,0.0000,0.0000,14975.0000,933.0000,-1271.0000,-6456.0000,0.5934
28221925,101278.062500,21.280001,3.908479,0.2200,1.2300,9.3100,14.6250,83.8750,-59.5625,0.0000,0.0000,0.0000,14901.0000,1111.0000,-961.0000,-6652.0000,0.5733
28251496,101281.976562,21.280001,3.582632,-0.6300,2.0900,8.9300,-20.6250,97.1250,-75.8125,0.0000,0.0000,0.0000,14799.0000,1270.0000,-571.0000,-6892.0000,0.4429
28282949,101271.992188,21.270000,4.414299,0.7800,0.5600,10.3000,-16.6250,66.0000,-52.8750,0.0000,0.0000,0.0000,14699.0000,1326.0000,-213.0000,-7112.0000,0.4050
28312572,101275.906250,21.270000,4.088436,0.0600,0.6500,10.0900,8.8125,34.5000,-20.1250,0.0000,0.0000,0.0000,14647.0000,1417.0000,-40.0000,-7204.0000,0.3802
28342152,101273.070312,21.270000,4.324317,-1.2100,1.4700,7.5900,21.0000,-16.4375,-3.2500,0.0000,0.0000,0.0000,14626.0000,1493.0000,-60.0000,-7231.0000,0.3909
28371775,101275.906250,21.270000,4.088436,0.1500,0.3400,9.8400,18.6250,-41.8750,-3.3125,0.0000,0.0000,0.0000,14609.0000,1484.0000,-210.0000,-7264.0000,0.3964
28410817,101281.976562,21.280001,3.582632,-0.3000,1.2200,8.5000,43.1875,-50.9375,0.5625,0.0000,0.0000,0.0000,14582.0000,1561.0000,-550.0000,-7285.0000,0.3151
28441148,101270.218750,21.280001,4.561729,-0.0200,1.5500,9.0300,40.5625,-42.1875,-4.0625,0.0000,0.0000,0.0000,14552.0000,1632.0000,-777.0000,-7307.0000,0.3038
28471448,101275.906250,21.270000,4.088436,0.1700,2.3100,7.6600,27.3125,-52.1875,-3.0000,0.0000,0.0000,0.0000,14525.0000,1645.0000,-1006.0000,-7331.0000,0.3069
28502864,101260.226562,21.270000,5.393984,0.9800,2.0000,6.3800,22.6250,-58.4375,0.0000,0.0000,0.0000,0.0000,14498.0000,1617.0000,-1264.0000,-7351.0000,0.4209
28532529,101285.898438,21.280001,3.255778,0.6700,2.3600,7.2300,9.8125,-46.1250,-9.0000,0.0000,0.0000,0.0000,14466.0000,1583.0000,-1472.0000,-7382.0000,0.3657
28562109,101268.070312,21.270000,4.740681,1.0000,3.3100,8.7900,3.0625,-46.8750,-21.3125,0.0000,0.0000,0.0000,14412.0000,1515.0000,-1649.0000,-7465.0000,0.4404
28593547,101283.750000,21.270000,3.434707,1.1800,2.5200,8.2000,2.9375,-43.3125,-24.3750,0.0000,0.0000,0.0000,14347.0000,1450.0000,-1804.0000,-7565.0000,0.3340
28623207,101279.828125,21.270000,3.761567,1.3200,2.9000,8.7900,-6.7500,-28.6875,-32.2500,0.0000,0.0000,0.0000,14272.0000,1405.0000,-1925.0000,-7685.0000,0.3030
28652833,101276.992188,21.270000,3.997949,1.4800,1.7700,8.4200,-19.8750,-15.0625,-26.5000,0.0000,0.0000,0.0000,14211.0000,1322.0000,-1947.0000,-7807.0000,0.2673
28684231,101271.992188,21.270000,4.414299,1.7900,1.2300,7.5300,-29.0625,-9.3750,-14.1875,0.0000,0.0000,0.0000,14176.0000,1216.0000,-1930.0000,-7891.0000,0.2624
28713834,101268.070312,21.270000,4.740681,1.5600,0.7300,7.1000,-0.4375,-9.4375,-3.0000,0.0000,0.0000,0.0000,14164.0000,1153.0000,-1934.0000,-7921.0000,0.3585
28743462,101275.906250,21.270000,4.088436,1.2600,2.0700,8.7400,29.6250,-9.1250,-6.6875,0.0000,0.0000,0.0000,14142.0000,1215.0000,-2005.0000,-7934.0000,0.2868
28782121,101267.000000,21.260000,4.830158,1.2600,1.5700,7.8400,19.6250,-14.7500,-1.3750,0.0000,0.0000,0.0000,14115.0000,1289.0000,-2131.0000,-7938.0000,0.3282
28812457,101268.070312,21.270000,4.740681,1.2400,1.9400,8.1200,12.7500,-5.2500,-1.8750,0.0000,0.0000,0.0000,14103.0000,1315.0000,-2186.0000,-7939.0000,0.2319
28842603,101283.750000,21.270000,3.434707,1.1100,2.1800,8.8700,0.1875,9.5000,-8.1250,0.0000,0.0000,0.0000,14094.0000,1326.0000,-2168.0000,-7959.0000,0.2515
28872589,101268.070312,21.270000,4.740681,0.8800,1.8000,9.3600,-16.3125,17.9375,-12.7500,0.0000,0.0000,0.0000,14084.0000,1312.0000,-2077.0000,-8002.0000,0.2336
28904038,101284.828125,21.270000,3.345242,1.1900,2.2300,9.0500,-19.8750,26.1250,-17.3750,0.0000,0.0000,0.0000,14067.0000,1309.0000,-1960.0000,-8062.0000,0.2180
28933604,101270.218750,21.280001,4.561729,1.0100,2.9700,10.4000,-12.2500,29.4375,-17.6250,0.0000,0.0000,0.0000,14052.0000,1317.0000,-1810.0000,-8122.0000,0.2819
28963253,101275.906250,21.270000,4.088436,1.2900,2.5300,10.0600,-2.6875,13.3750,-11.9375,0.0000,0.0000,0.0000,14031.0000,1342.0000,-1728.0000,-8171.0000,0.2814
28994695,101278.062500,21.280001,3.908479,1.3800,2.3300,10.0400,13.1875,1.6875,-3.2500,0.0000,0.0000,0.0000,14018.0000,1385.0000,-1721.0000,-8188.0000,0.2361
29024343,101275.906250,21.270000,4.088436,1.2400,2.4100,9.1500,6.8125,-3.4375,2.0000,0.0000,0.0000,0.0000,14015.0000,1416.0000,-1755.0000,-8180.0000,0.1529
29053904,101278.062500,21.280001,3.908479,0.8100,2.7100,9.8300,7.6250,-4.3125,-1.8125,0.0000,0.0000,0.0000,14010.0000,1436.0000,-1780.0000,-8180.0000,0.1206
29085317,101275.210938,21.280001,4.145881,1.3300,1.4100,8.8600,5.6250,-9.6250,-4.6875,0.0000,0.0000,0.0000,13996.0000,1440.0000,-1824.0000,-8194.0000,0.0444
29114952,101278.062500,21.280001,3.908479,1.2500,2.1700,8.9500,5.6875,-1.6875,-8.0625,0.0000,0.0000,0.0000,13975.0000,1459.0000,-1852.0000,-8220.0000,-0.0401
29144613,101280.906250,21.270000,3.671590,1.0100,2.4800,8.7100,-0.3125,2.5000,-9.1250,0.0000,0.0000,0.0000,13959.0000,1467.0000,-1845.0000,-8248.0000,-0.0052
29183218,101281.976562,21.280001,3.582632,1.2100,2.4200,9.6600,-8.0625,5.3125,-11.5625,0.0000,0.0000,0.0000,13933.0000,1457.0000,-1802.0000,-8303.0000,-0.1353
29213616,101271.289062,21.280001,4.472763,1.5500,1.6500,8.8000,-4.8750,0.3125,-10.3125,0.0000,0.0000,0.0000,13913.0000,1445.0000,-1783.0000,-8342.0000,-0.0500
29243724,101266.296875,21.280001,4.888624,1.0200,2.5100,8.0900,-4.0625,-2.4375,-11.5000,0.0000,0.0000,0.0000,13890.0000,1435.0000,-1774.0000,-8384.0000,-0.0364
29273882,101283.046875,21.280001,3.493674,1.4500,1.9200,8.7800,-4.4375,-1.4375,-3.8125,0.0000,0.0000,0.0000,13876.0000,1419.0000,-1767.0000,-8412.0000,-0.0918
29305341,101275.906250,21.270000,4.088436,1.3300,2.4800,9.2300,-16.1250,-0.5000,1.1250,0.0000,0.0000,0.0000,13880.0000,1365.0000,-1736.0000,-8420.0000,-0.0881
29334911,101271.992188,21.270000,4.414299,1.2600,2.2400,8.4600,5.8750,-9.1875,4.4375,0.0000,0.0000,0.0000,13886.0000,1338.0000,-1751.0000,-8412.0000,-0.0502
29364535,101274.140625,21.280001,4.235353,1.1400,2.4900,7.8800,16.6250,-6.3125,2.6875,0.0000,0.0000,0.0000,13885.0000,1374.0000,-1817.0000,-8394.0000,-0.0384
29395943,101278.062500,21.280001,3.908479,1.2500,2.3200,9.2900,-2.3125,3.3750,-2.6250,0.0000,0.0000,0.0000,13882.0000,1388.0000,-1819.0000,-8397.0000,-0.0580
29425541,101270.218750,21.280001,4.561729,1.3400,2.2000,8.8100,0.6875,-3.8125,-4.0625,0.0000,0.0000,0.0000,13872.0000,1387.0000,-1824.0000,-8412.0000,-0.0147
29455161,101278.062500,21.280001,3.908479,1.1800,2.5700,9.0500,-6.0000,-0.5625,-9.2500,0.0000,0.0000,0.0000,13857.0000,1365.0000,-1819.0000,-8440.0000,0.0101
29495190,101285.898438,21.280001,3.255778,0.9000,2.1100,9.1000,-16.8125,7.1875,-15.6875,0.0000,0.0000,0.0000,13827.0000,1344.0000,-1769.0000,-8503.0000,0.0059
29524844,101272.367188,21.290001,4.382780,0.8600,2.1600,8.7800,-13.6875,-5.9375,-16.6875,0.0000,0.0000,0.0000,13797.0000,1293.0000,-1739.0000,-8566.0000,0.0034
29554732,101283.046875,21.280001,3.493674,1.2000,2.3500,9.5500,-30.6250,-9.3125,-28.3750,0.0000,0.0000,0.0000,13746.0000,1185.0000,-1702.0000,-8672.0000,-0.1248
29594386,101275.210938,21.280001,4.145881,0.6000,1.2800,10.0000,-5.0625,-2.3125,-40.3125,0.0000,0.0000,0.0000,13648.0000,1144.0000,-1676.0000,-8834.0000,-0.0614
29624741,101280.210938,21.290001,3.729541,0.8100,2.3300,7.9900,12.8125,6.9375,-10.5000,0.0000,0.0000,0.0000,13610.0000,1192.0000,-1669.0000,-8888.0000,-0.0925
29654896,101271.289062,21.280001,4.472763,1.3900,2.1400,9.7500,-16.6250,13.5000,-8.1875,0.0000,0.0000,0.0000,13596.0000,1175.0000,-1598.0000,-8925.0000,-0.0885
29686301,101274.140625,21.280001,4.235353,1.0200,2.1900,9.1700,22.0625,12.8750,-2.8125,0.0000,0.0000,0.0000,13586.0000,1258.0000,-1581.0000,-8932.0000,-0.0855
29715919,101271.289062,21.280001,4.472763,0.8700,2.0100,9.0300,27.0000,13.8125,1.1875,0.0000,0.0000,0.0000,13584.0000,1374.0000,-1589.0000,-8917.0000,-0.0440
29745522,101289.132812,21.290001,2.986373,0.8500,1.9200,9.3100,26.7500,2.5625,-2.9375,0.0000,0.0000,0.0000,13575.0000,1476.0000,-1623.0000,-8908.0000,-0.1831
29775425,101274.140625,21.280001,4.235353,0.9500,1.9100,9.2200,17.8750,1.5625,-4.6250,0.0000,0.0000,0.0000,13562.0000,1516.0000,-1664.0000,-8912.0000,-0.1569
29806828,101268.453125,21.290001,4.709161,0.6000,1.8700,9.3300,6.8125,10.6875,-11.5000,0.0000,0.0000,0.0000,13548.0000,1528.0000,-1646.0000,-8935.0000,-0.0341
29836451,101278.062500,21.280001,3.908479,0.4600,2.6000,9.0500,21.8750,11.3125,-24.0625,0.0000,0.0000,0.0000,13501.0000,1616.0000,-1632.0000,-8993.0000,-0.0714
29866049,101276.289062,21.290001,4.056410,0.8400,2.7300,9.3800,19.0000,6.3750,-20.3125,0.0000,0.0000,0.0000,13442.0000,1720.0000,-1648.0000,-9060.0000,-0.0145
29897451,101280.210938,21.290001,3.729541,0.6800,2.5600,8.9300,-0.7500,11.6250,-11.0625,0.0000,0.0000,0.0000,13412.0000,1772.0000,-1624.0000,-9099.0000,-0.0442
29927071,101276.289062,21.290001,4.056410,0.5000,2.8100,9.1700,-26.1250,3.4375,-9.1875,0.0000,0.0000,0.0000,13400.0000,1729.0000,-1550.0000,-9137.0000,-0.0109
29956733,101288.046875,21.290001,3.076851,0.6000,2.6400,10.0400,-12.6250,-17.0625,-10.0000,0.0000,0.0000,0.0000,13382.0000,1638.0000,-1535.0000,-9182.0000,-0.1404
29995548,101275.210938,21.280001,4.145881,0.8100,2.4200,9.2400,-8.8125,-9.5000,-5.5625,0.0000,0.0000,0.0000,13359.0000,1569.0000,-1559.0000,-9223.0000,-0.1410
30026094,101284.132812,21.290001,3.403191,0.6300,1.9700,9.7700,-14.3750,2.5000,5.8750,0.0000,0.0000,0.0000,13377.0000,1521.0000,-1519.0000,-9213.0000,-0.2343
30056199,101276.289062,21.290001,4.056410,0.5300,2.5900,9.6900,-20.0000,-8.1875,-4.2500,0.0000,0.0000,0.0000,13380.0000,1443.0000,-1485.0000,-9227.0000,-0.1005
30087625,101280.210938,21.290001,3.729541,1.0500,1.8100,9.9300,-10.2500,-10.5625,-5.9375,0.0000,0.0000,0.0000,13367.0000,1372.0000,-1486.0000,-9255.0000,-0.1606
30117227,101276.289062,21.290001,4.056410,0.8000,2.2800,9.6200,-13.8125,-7.6875,-9.1875,0.0000,0.0000,0.0000,13348.0000,1320.0000,-1485.0000,-9291.0000,-0.2122
30146855,101281.281250,21.290001,3.640582,0.9200,2.1500,9.1600,-6.4375,-13.3125,-8.6250,0.0000,0.0000,0.0000,13327.0000,1263.0000,-1495.0000,-9327.0000,-0.2431
30178234,101280.210938,21.290001,3.729541,1.1300,1.8500,8.4300,-2.6875,-14.6875,-11.0000,0.0000,0.0000,0.0000,13297.0000,1223.0000,-1537.0000,-9368.0000,-0.2751
30207848,101278.062500,21.280001,3.908479,1.1300,2.1500,8.6800,-13.3750,-10.8750,-6.0000,0.0000,0.0000,0.0000,13278.0000,1163.0000,-1551.0000,-9401.0000,-0.2554
30237480,101270.218750,21.280001,4.561729,0.7900,2.5900,9.1600,-13.6250,0.8125,-7.8750,0.0000,0.0000,0.0000,13264.0000,1113.0000,-1528.0000,-9430.0000,-0.2078
30267055,101283.046875,21.280001,3.493674,0.8500,1.9500,9.1100,-11.8125,10.8125,-10.2500,0.0000,0.0000,0.0000,13249.0000,1090.0000,-1468.0000,-9464.0000,-0.1412
30298461,101280.210938,21.290001,3.729541,0.9400,1.5300,8.7500,2.8750,14.8750,-17.1875,0.0000,0.0000,0.0000,13218.0000,1125.0000,-1415.0000,-9511.0000,-0.1757
30328102,101276.289062,21.290001,4.056410,1.0700,1.7600,8.9300,-16.3125,27.3750,-13.5000,0.0000,0.0000,0.0000,13190.0000,1158.0000,-1312.0000,-9560.0000,-0.0949
30357698,101278.062500,21.280001,3.908479,0.7000,1.4900,9.4300,-13.3125,19.0000,-12.7500,0.0000,0.0000,0.0000,13172.0000,1160.0000,-1187.0000,-9601.0000,-0.0930
30396780,101279.132812,21.280001,3.819518,0.6200,2.4500,8.6300,-5.6875,1.5625,-14.1250,0.0000,0.0000,0.0000,13132.0000,1155.0000,-1145.0000,-9661.0000,-0.0917
30427300,101289.132812,21.290001,2.986373,1.0600,1.5900,9.5500,19.5625,-10.8750,-1.5000,0.0000,0.0000,0.0000,13115.0000,1199.0000,-1219.0000,-9671.0000,-0.1636
30457472,101272.367188,21.290001,4.382780,0.3700,1.4700,9.6900,20.4375,-12.0625,-1.9375,0.0000,0.0000,0.0000,13103.0000,1228.0000,-1305.0000,-9671.0000,-0.1102
30488934,101288.046875,21.290001,3.076851,0.6600,2.1200,9.6600,-21.8750,-4.5625,-3.9375,0.0000,0.0000,0.0000,13097.0000,1156.0000,-1285.0000,-9691.0000,-0.1458
30518503,101280.210938,21.290001,3.729541,0.6500,2.2700,9.5600,3.8125,-10.5625,-1.1250,0.0000,0.0000,0.0000,13089.0000,1116.0000,-1290.0000,-9705.0000,-0.1565
30548128,101288.046875,21.290001,3.076851,0.5700,1.6700,9.6600,26.9375,-17.0000,4.3750,0.0000,0.0000,0.0000,13086.0000,1149.0000,-1400.0000,-9691.0000,-0.2883
30579531,101280.210938,21.290001,3.729541,1.0100,1.5400,9.4200,10.5000,-14.4375,-1.6875,0.0000,0.0000,0.0000,13077.0000,1168.0000,-1493.0000,-9688.0000,-0.2576
30609180,101284.132812,21.290001,3.403191,0.9800,2.2200,8.9300,-9.8125,-10.5000,0.3125,0.0000,0.0000,0.0000,13070.0000,1127.0000,-1521.0000,-9698.0000,-0.2801
30638802,101272.367188,21.290001,4.382780,0.5400,1.6600,10.5700,-17.9375,-13.6875,4.8125,0.0000,0.0000,0.0000,13081.0000,1039.0000,-1520.0000,-9692.0000,-0.2522
30706991,101273.437500,21.290001,4.293815,1.3100,1.7400,8.3900,-4.7500,-19.1250,-1.0625,0.0000,0.0000,0.0000,13051.0000,936.0000,-1679.0000,-9720.0000,-0.2214
30738019,101275.210938,21.280001,4.145881,1.1600,1.3300,9.4200,-16.3750,-10.0625,0.6250,0.0000,0.0000,0.0000,13055.0000,832.0000,-1677.0000,-9721.0000,-0.1982
30768316,101294.117188,21.299999,2.571604,1.6300,1.9900,9.8700,-15.6875,-2.1875,-10.0000,0.0000,0.0000,0.0000,13039.0000,773.0000,-1660.0000,-9750.0000,-0.2195
30798355,101283.046875,21.280001,3.493674,1.1400,2.4100,8.3000,5.9375,4.5000,-8.3125,0.0000,0.0000,0.0000,13014.0000,800.0000,-1658.0000,-9782.0000,-0.2888
30838064,101279.132812,21.280001,3.819518,1.4000,1.5400,9.5500,8.6250,1.0625,-0.3750,0.0000,0.0000,0.0000,13007.0000,843.0000,-1676.0000,-9784.0000,-0.1931
30868564,101279.132812,21.280001,3.819518,1.5300,2.6300,10.1400,5.8125,6.0000,-4.1250,0.0000,0.0000,0.0000,13000.0000,866.0000,-1682.0000,-9790.0000,-0.1907
30898697,101284.132812,21.290001,3.403191,1.1900,2.4200,9.6800,-2.6875,12.0000,-4.3125,0.0000,0.0000,0.0000,12993.0000,891.0000,-1635.0000,-9805.0000,-0.1443
30930064,101280.210938,21.290001,3.729541,1.2600,1.6900,9.4000,0.3125,6.1875,-3.0625,0.0000,0.0000,0.0000,12989.0000,911.0000,-1610.0000,-9813.0000,-0.1306
30968796,101276.289062,21.290001,4.056410,0.8900,2.2900,9.7100,8.5000,-3.8750,-4.6875,0.0000,0.0000,0.0000,12975.0000,947.0000,-1630.0000,-9825.0000,-0.0617
31018591,101280.210938,21.290001,3.729541,1.3300,2.5700,9.2900,12.8750,-1.3125,-5.3125,0.0000,0.0000,0.0000,12944.0000,1019.0000,-1704.0000,-9846.0000,-0.1235
31050562,101275.210938,21.280001,4.145881,0.8200,2.5500,9.1900,9.1250,-4.1250,-1.8125,0.0000,0.0000,0.0000,12934.0000,1051.0000,-1731.0000,-9851.0000,-0.1300
31080188,101294.820312,21.280001,2.513151,1.3800,2.6000,8.9200,-9.5625,-2.4375,-9.3750,0.0000,0.0000,0.0000,12919.0000,1030.0000,-1737.0000,-9873.0000,-0.2653
31109790,101288.046875,21.290001,3.076851,1.1300,2.3100,9.7300,-11.6875,2.1875,0.8125,0.0000,0.0000,0.0000,12912.0000,1004.0000,-1702.0000,-9889.0000,-0.2112
31141217,101280.210938,21.290001,3.729541,1.3300,2.0500,9.2800,-3.0000,-4.4375,0.3750,0.0000,0.0000,0.0000,12913.0000,980.0000,-1693.0000,-9892.0000,-0.1746
31170808,101280.210938,21.290001,3.729541,1.4100,1.7400,8.9800,-14.1250,-7.9375,0.8125,0.0000,0.0000,0.0000,12915.0000,928.0000,-1692.0000,-9895.0000,-0.1883
31200423,101281.281250,21.290001,3.640582,1.1100,2.0300,9.4300,-23.9375,-13.6875,2.6250,0.0000,0.0000,0.0000,12920.0000,834.0000,-1683.0000,-9898.0000,-0.1961
31230036,101280.210938,21.290001,3.729541,1.1500,3.0700,10.5600,-20.8750,-9.1250,-2.5000,0.0000,0.0000,0.0000,12917.0000,730.0000,-1659.0000,-9914.0000,-0.1634
31269451,101280.210938,21.290001,3.729541,1.4900,1.3200,8.7300,-14.5000,-12.3750,-0.7500,0.0000,0.0000,0.0000,12909.0000,623.0000,-1656.0000,-9933.0000,-0.1486
31299871,101283.046875,21.280001,3.493674,1.4400,1.5700,8.4100,-14.8125,-9.8125,0.0000,0.0000,0.0000,0.0000,12904.0000,544.0000,-1656.0000,-9944.0000,-0.1900
31329975,101289.132812,21.290001,2.986373,1.7500,1.9700,9.2900,-20.0000,-2.6875,2.0625,0.0000,0.0000,0.0000,12909.0000,469.0000,-1628.0000,-9946.0000,-0.2346
31361446,101288.046875,21.290001,3.076851,1.4200,1.3800,8.3100,8.5000,4.4375,-1.0000,0.0000,0.0000,0.0000,12910.0000,482.0000,-1623.0000,-9945.0000,-0.3433
31391033,101288.046875,21.290001,3.076851,1.0800,1.0300,7.9900,14.5000,4.7500,0.6875,0.0000,0.0000,0.0000,12911.0000,541.0000,-1644.0000,-9937.0000,-0.2638
31420678,101280.210938,21.290001,3.729541,1.4000,1.5800,9.0000,6.7500,11.3125,0.0625,0.0000,0.0000,0.0000,12914.0000,592.0000,-1641.0000,-9930.0000,-0.1789
31452099,101275.210938,21.280001,4.145881,1.3000,2.0100,10.1000,0.4375,20.0000,-7.9375,0.0000,0.0000,0.0000,12908.0000,643.0000,-1585.0000,-9944.0000,-0.1420
31481696,101285.210938,21.290001,3.313218,1.0300,1.5400,9.1200,-12.8750,13.6875,-6.3125,0.0000,0.0000,0.0000,12897.0000,669.0000,-1515.0000,-9968.0000,-0.1688
31511325,101289.132812,21.290001,2.986373,0.9200,1.8800,9.8600,-17.0000,15.9375,-9.4375,0.0000,0.0000,0.0000,12886.0000,648.0000,-1420.0000,-9998.0000,-0.2193
31542744,101294.820312,21.280001,2.513151,1.3500,1.6900,10.8200,-4.8125,14.5000,-8.6875,0.0000,0.0000,0.0000,12868.0000,668.0000,-1350.0000,-10030.0000,-0.3101
31572423,101285.210938,21.290001,3.313218,0.9700,1.7000,10.2800,0.8125,14.0625,-7.8750,0.0000,0.0000,0.0000,12853.0000,700.0000,-1295.0000,-10053.0000,-0.3565
31602027,101279.132812,21.280001,3.819518,0.7400,1.8400,10.1600,2.0625,5.2500,-9.3750,0.0000,0.0000,0.0000,12832.0000,735.0000,-1272.0000,-10080.0000,-0.3174
31631678,101281.281250,21.290001,3.640582,0.7800,1.9000,10.1100,-9.1875,0.3125,-8.4375,0.0000,0.0000,0.0000,12811.0000,726.0000,-1256.0000,-10110.0000,-0.2567
31670754,101280.210938,21.290001,3.729541,0.7300,1.4800,9.8200,-8.5000,5.7500,-10.6250,0.0000,0.0000,0.0000,12780.0000,702.0000,-1203.0000,-10157.0000,-0.1849
31701069,101284.132812,21.290001,3.403191,0.7500,1.2600,9.8100,-5.8125,5.3125,-10.9375,0.0000,0.0000,0.0000,12751.0000,702.0000,-1166.0000,-10198.0000,-0.1457
31731283,101280.210938,21.290001,3.729541,0.6700,1.6400,10.1200,-12.3750,6.6875,-3.8125,0.0000,0.0000,0.0000,12740.0000,677.0000,-1112.0000,-10219.0000,-0.1392
31762713,101284.132812,21.290001,3.403191,0.5600,1.4400,9.8100,-13.0625,5.7500,-2.9375,0.0000,0.0000,0.0000,12738.0000,639.0000,-1047.0000,-10232.0000,-0.2087
31792325,101280.210938,21.290001,3.729541,0.4700,1.0900,9.4300,-11.7500,7.0625,-5.2500,0.0000,0.0000,0.0000,12729.0000,622.0000,-997.0000,-10248.0000,-0.1671
31821921,101284.132812,21.290001,3.403191,0.5000,1.0200,9.2700,-17.5625,9.8750,-4.5625,0.0000,0.0000,0.0000,12721.0000,594.0000,-924.0000,-10267.0000,-0.1153
31853325,101288.046875,21.290001,3.076851,0.4300,1.1900,9.0000,-10.7500,10.8750,-3.8125,0.0000,0.0000,0.0000,12715.0000,582.0000,-857.0000,-10281.0000,-0.0292
31882958,101288.046875,21.290001,3.076851,0.6300,0.7300,9.8000,-21.1250,12.1875,-1.6250,0.0000,0.0000,0.0000,12714.0000,557.0000,-776.0000,-10290.0000,-0.0445
31912604,101280.210938,21.290001,3.729541,0.1700,0.9500,10.0300,-12.9375,18.4375,-1.1875,0.0000,0.0000,0.0000,12715.0000,547.0000,-678.0000,-10296.0000,-0.0535
31944004,101280.210938,21.290001,3.729541,0.4500,0.7600,9.4300,-7.0625,14.3750,0.8750,0.0000,0.0000,0.0000,12719.0000,558.0000,-600.0000,-10296.0000,-0.0381
31973628,101280.210938,21.290001,3.729541,0.3200,0.7900,10.0700,-12.9375,8.8125,3.4375,0.0000,0.0000,0.0000,12727.0000,553.0000,-540.0000,-10289.0000,-0.0345
32003228,101280.210938,21.290001,3.729541,0.1800,0.8700,9.9500,-8.8125,3.1250,1.2500,0.0000,0.0000,0.0000,12736.0000,532.0000,-501.0000,-10280.0000,-0.0001
32032831,101291.281250,21.299999,2.807451,0.0500,0.4500,9.6000,-6.1250,-4.3750,0.4375,0.0000,0.0000,0.0000,12737.0000,502.0000,-487.0000,-10282.0000,-0.0887
32071867,101273.437500,21.290001,4.293815,0.4500,0.5900,9.6600,-2.7500,-6.5625,1.0000,0.0000,0.0000,0.0000,12739.0000,468.0000,-505.0000,-10280.0000,0.0021
32102282,101280.210938,21.290001,3.729541,0.3500,0.5700,9.6900,4.0625,-2.4375,-1.0000,0.0000,0.0000,0.0000,12738.0000,474.0000,-526.0000,-10280.0000,-0.0109
32132437,101276.289062,21.290001,4.056410,0.4000,0.6600,9.9400,7.6250,-2.1875,-0.8125,0.0000,0.0000,0.0000,12733.0000,481.0000,-552.0000,-10285.0000,0.0479
32163810,101280.210938,21.290001,3.729541,0.5100,0.8700,9.9500,4.6875,4.6875,2.5000,0.0000,0.0000,0.0000,12737.0000,497.0000,-558.0000,-10278.0000,0.1001
32193431,101289.132812,21.290001,2.986373,0.4100,0.7400,10.1000,6.0625,9.7500,1.1875,0.0000,0.0000,0.0000,12743.0000,533.0000,-549.0000,-10270.0000,0.1059
32223035,101284.132812,21.290001,3.403191,0.3000,0.8200,9.7400,8.1250,13.2500,-0.8125,0.0000,0.0000,0.0000,12743.0000,585.0000,-532.0000,-10268.0000,0.0733
32254407,101286.976562,21.280001,3.166314,0.1600,0.9000,9.9500,-0.4375,14.2500,0.1250,0.0000,0.0000,0.0000,12744.0000,626.0000,-494.0000,-10266.0000,0.0413
32283954,101276.289062,21.290001,4.056410,0.0800,0.9800,10.1600,1.5000,9.8750,-0.6875,0.0000,0.0000,0.0000,12744.0000,657.0000,-463.0000,-10265.0000,0.0787
32313633,101272.367188,21.290001,4.382780,0.0200,0.8100,11.1200,-5.9375,11.8125,1.0625,0.0000,0.0000,0.0000,12748.0000,672.0000,-417.0000,-10261.0000,0.1393
32345027,101280.210938,21.290001,3.729541,-0.3600,1.2400,12.1800,-7.7500,8.3125,-1.1250,0.0000,0.0000,0.0000,12749.0000,677.0000,-365.0000,-10262.0000,0.2083
32374685,101286.281250,21.299999,3.224262,-0.3100,1.2800,13.3200,-16.8125,-1.4375,-3.7500,0.0000,0.0000,0.0000,12745.0000,638.0000,-327.0000,-10271.0000,0.1068
32404340,101288.046875,21.290001,3.076851,-0.0300,1.9600,14.5100,-26.4375,5.9375,-2.5625,0.0000,0.0000,0.0000,12739.0000,569.0000,-258.0000,-10284.0000,0.0564
32433926,101280.210938,21.290001,3.729541,-0.2000,1.6700,14.0400,-26.7500,18.7500,3.3125,0.0000,0.0000,0.0000,12749.0000,521.0000,-135.0000,-10277.0000,0.0255
32473132,101281.281250,21.290001,3.640582,-0.9300,1.1200,14.1200,-22.5000,17.5625,-7.2500,0.0000,0.0000,0.0000,12736.0000,481.0000,26.0000,-10296.0000,0.0118
32503487,101288.046875,21.290001,3.076851,0.3300,1.3200,16.8800,-44.8125,33.8125,-2.3750,0.0000,0.0000,0.0000,12722.0000,396.0000,226.0000,-10314.0000,0.0209
32533583,101284.132812,21.290001,3.403191,-0.5600,3.4500,17.6600,-64.0000,28.3750,6.8125,0.0000,0.0000,0.0000,12738.0000,282.0000,511.0000,-10288.0000,0.0209
32565060,101284.132812,21.290001,3.403191,-0.8400,0.4500,14.3600,-51.1875,-15.6250,0.8125,0.0000,0.0000,0.0000,12746.0000,103.0000,649.0000,-10274.0000,0.0446
32594689,101281.976562,21.280001,3.582632,0.0900,-0.0800,13.6600,-12.0625,-27.5000,5.0000,0.0000,0.0000,0.0000,12757.0000,-51.0000,629.0000,-10261.0000,-0.0028
32624313,101272.367188,21.290001,4.382780,0.4900,-0.1700,12.6300,34.7500,-13.7500,4.3125,0.0000,0.0000,0.0000,12777.0000,-57.0000,534.0000,-10241.0000,-0.0028
32655781,101276.289062,21.290001,4.056410,0.2500,0.9500,11.5400,125.5000,-9.0000,-10.9375,0.0000,0.0000,0.0000,12765.0000,238.0000,249.0000,-10265.0000,0.0299
32685362,101274.140625,21.280001,4.235353,0.7900,1.5400,6.5500,126.7500,-20.1875,-27.6875,0.0000,0.0000,0.0000,12685.0000,621.0000,-142.0000,-10350.0000,0.1310
32714968,101286.976562,21.280001,3.166314,0.9400,0.0900,3.8100,101.8125,-19.0625,-26.7500,0.0000,0.0000,0.0000,12591.0000,920.0000,-502.0000,-10431.0000,0.1399
32754219,101274.140625,21.280001,4.235353,0.2800,0.1500,6.6300,66.8125,26.9375,-15.6875,0.0000,0.0000,0.0000,12491.0000,1286.0000,-697.0000,-10501.0000,0.1905
32784274,101269.148438,21.270000,4.651205,-0.8700,-0.2900,6.8600,35.7500,14.7500,-5.8125,0.0000,0.0000,0.0000,12459.0000,1459.0000,-733.0000,-10514.0000,0.2916
32814435,101275.906250,21.270000,4.088436,0.0500,0.1700,7.8300,46.5625,9.6250,-5.6875,0.0000,0.0000,0.0000,12426.0000,1631.0000,-825.0000,-10520.0000,0.3927
32844492,101275.906250,21.270000,4.088436,-0.6100,-0.2500,8.6200,42.6875,8.0625,-6.6250,0.0000,0.0000,0.0000,12394.0000,1800.0000,-910.0000,-10524.0000,0.4613
32884118,101275.906250,21.270000,4.088436,-0.6300,0.5800,6.9300,57.0625,-4.6250,-10.6875,0.0000,0.0000,0.0000,12321.0000,2028.0000,-1111.0000,-10549.0000,0.5298
32914580,101275.906250,21.270000,4.088436,-0.6400,1.6300,7.3600,64.5000,1.0000,-3.0000,0.0000,0.0000,0.0000,12275.0000,2217.0000,-1294.0000,-10543.0000,0.5804
32944767,101271.609375,21.250000,4.446327,-0.9200,0.6900,6.8600,52.3125,-2.1875,2.2500,0.0000,0.0000,0.0000,12249.0000,2382.0000,-1432.0000,-10520.0000,0.5867
32976202,101264.851562,21.260000,5.009115,-0.8000,1.5100,6.4600,42.1250,-0.8125,-10.1250,0.0000,0.0000,0.0000,12208.0000,2502.0000,-1548.0000,-10524.0000,0.6820
33005826,101283.367188,21.250000,3.466732,-0.3300,2.6500,7.6700,25.5625,-9.2500,-7.8750,0.0000,0.0000,0.0000,12156.0000,2600.0000,-1640.0000,-10546.0000,0.6051
33035443,101263.773438,21.250000,5.098594,-0.7800,2.6600,8.0000,-7.3125,-35.3750,0.8125,0.0000,0.0000,0.0000,12139.0000,2536.0000,-1739.0000,-10566.0000,0.7983
33066892,101279.453125,21.250000,3.792576,-0.0400,2.2200,7.5400,-25.7500,-22.1875,-0.3125,0.0000,0.0000,0.0000,12137.0000,2390.0000,-1769.0000,-10597.0000,0.7541
33096514,101271.609375,21.250000,4.446327,0.2100,2.4000,6.7000,-23.2500,-5.6250,2.9375,0.0000,0.0000,0.0000,12154.0000,2288.0000,-1735.0000,-10605.0000,0.7336
33126147,101275.531250,21.250000,4.119446,-0.0300,2.2900,6.4500,-10.6250,-10.5000,-2.6875,0.0000,0.0000,0.0000,12160.0000,2222.0000,-1721.0000,-10615.0000,0.7367
33157598,101277.296875,21.240000,3.972531,0.3200,2.6400,6.6300,-9.0000,-14.0625,-9.7500,0.0000,0.0000,0.0000,12135.0000,2166.0000,-1733.0000,-10653.0000,0.7251
33187187,101277.296875,21.240000,3.972531,0.3200,2.2600,8.1900,-27.8750,-27.4375,-5.8125,0.0000,0.0000,0.0000,12118.0000,2041.0000,-1741.0000,-10696.0000,0.7135
33216801,101276.226562,21.240000,4.061493,0.3400,1.6200,8.7200,-38.1875,-38.0000,-10.5000,0.0000,0.0000,0.0000,12095.0000,1841.0000,-1748.0000,-10757.0000,0.7108
33255382,101277.296875,21.240000,3.972531,0.8100,2.3400,8.8300,-27.2500,-27.6875,-6.5000,0.0000,0.0000,0.0000,12062.0000,1616.0000,-1754.0000,-10829.0000,0.6634
33285703,101269.460938,21.240000,4.625277,0.8000,2.3900,9.0200,-26.3750,3.3750,-7.0625,0.0000,0.0000,0.0000,12053.0000,1538.0000,-1684.0000,-10861.0000,0.6250
33315874,101269.460938,21.240000,4.625277,0.5500,2.8100,7.1700,-7.6875,-15.8750,-8.8750,0.0000,0.0000,0.0000,12029.0000,1497.0000,-1683.0000,-10894.0000,0.7409
33347303,101281.218750,21.240000,3.645665,0.9500,2.2300,7.5000,8.8750,-31.5625,-0.7500,0.0000,0.0000,0.0000,12003.0000,1449.0000,-1792.0000,-10911.0000,0.5956
33376932,101272.312500,21.240000,4.387356,0.9300,2.7100,7.3100,11.1875,-34.0625,-0.0625,0.0000,0.0000,0.0000,11984.0000,1381.0000,-1915.0000,-10920.0000,0.6551
33406556,101273.382812,21.240000,4.298391,1.1100,2.2900,7.3500,2.2500,-27.4375,3.9375,0.0000,0.0000,0.0000,11974.0000,1320.0000,-2035.0000,-10917.0000,0.6403
33436293,101281.218750,21.240000,3.645665,1.1300,1.9200,7.7200,3.0000,-9.2500,1.0000,0.0000,0.0000,0.0000,11972.0000,1279.0000,-2084.0000,-10914.0000,0.5929
33467629,101274.460938,21.250000,4.208410,1.3800,1.8600,6.7500,13.4375,1.5000,-1.7500,0.0000,0.0000,0.0000,11966.0000,1298.0000,-2112.0000,-10914.0000,0.6165
33497226,101277.296875,21.240000,3.972531,1.0700,1.8600,6.3900,15.3125,9.0625,2.1875,0.0000,0.0000,0.0000,11963.0000,1376.0000,-2139.0000,-10902.0000,0.6165
33526808,101269.460938,21.240000,4.625277,1.0400,3.2000,8.2700,7.8750,11.2500,4.5000,0.0000,0.0000,0.0000,11978.0000,1429.0000,-2131.0000,-10880.0000,0.6729
33558255,101269.460938,21.240000,4.625277,1.3800,3.6500,9.5800,11.8125,10.5000,6.3125,0.0000,0.0000,0.0000,11996.0000,1486.0000,-2125.0000,-10854.0000,0.7382
33587832,101270.539062,21.250000,4.535294,0.7900,2.8500,8.8100,13.3125,3.6250,15.4375,0.0000,0.0000,0.0000,12030.0000,1541.0000,-2154.0000,-10803.0000,0.7292
33617460,101269.460938,21.240000,4.625277,0.9400,2.8500,9.5100,-11.6250,4.8750,3.7500,0.0000,0.0000,0.0000,12058.0000,1534.0000,-2137.0000,-10776.0000,0.7292
33656534,101276.226562,21.240000,4.061493,1.4500,3.0800,9.6300,2.1250,11.7500,-1.3750,0.0000,0.0000,0.0000,12063.0000,1568.0000,-2091.0000,-10774.0000,0.7707
33686934,101274.460938,21.250000,4.208410,1.1800,3.8400,9.7600,17.8125,8.2500,12.8750,0.0000,0.0000,0.0000,12087.0000,1644.0000,-2112.0000,-10732.0000,0.7528
33717047,101272.312500,21.240000,4.387356,1.3100,3.2100,10.3800,29.0625,2.3125,9.0625,0.0000,0.0000,0.0000,12109.0000,1734.0000,-2183.0000,-10678.0000,0.7617
33759705,101271.609375,21.250000,4.446327,1.9100,3.1600,9.9000,0.4375,-1.4375,9.0000,0.0000,0.0000,0.0000,12126.0000,1780.0000,-2223.0000,-10644.0000,0.8418
33811060,101285.140625,21.240000,3.319318,1.6500,3.3300,8.7200,30.8125,-19.0625,11.0000,0.0000,0.0000,0.0000,12156.0000,1806.0000,-2392.0000,-10568.0000,0.7529
33840586,101278.382812,21.250000,3.882045,1.5300,3.0500,8.8700,19.8750,-12.0625,7.8125,0.0000,0.0000,0.0000,12158.0000,1845.0000,-2515.0000,-10531.0000,0.7438
33870189,101261.617188,21.240000,5.278573,1.8400,3.3700,8.0300,-2.0000,-12.8125,4.8125,0.0000,0.0000,0.0000,12166.0000,1819.0000,-2557.0000,-10516.0000,0.8092
33906115,101278.382812,21.250000,3.882045,1.8200,3.7300,7.1100,-14.2500,-21.0625,3.8125,0.0000,0.0000,0.0000,12166.0000,1740.0000,-2594.0000,-10521.0000,0.7349
33937556,101270.539062,21.250000,4.535294,1.9000,3.0200,8.7600,-27.6875,-18.6875,8.5625,0.0000,0.0000,0.0000,12188.0000,1563.0000,-2590.0000,-10523.0000,0.7349
33967909,101274.460938,21.250000,4.208410,1.8500,3.1600,9.2100,-22.6875,-18.3125,2.0000,0.0000,0.0000,0.0000,12200.0000,1438.0000,-2585.0000,-10528.0000,0.6932
33999383,101270.539062,21.250000,4.535294,1.9900,2.7600,8.7000,-24.0625,-16.1250,-12.1250,0.0000,0.0000,0.0000,12177.0000,1320.0000,-2566.0000,-10575.0000,0.7405
34028991,101275.531250,21.250000,4.119446,2.1400,2.9000,8.7300,-19.8125,-8.8125,-19.1250,0.0000,0.0000,0.0000,12129.0000,1235.0000,-2540.0000,-10647.0000,0.7317
34058598,101279.453125,21.250000,3.792576,2.4100,2.6400,8.4100,-16.8750,-3.1250,-18.3750,0.0000,0.0000,0.0000,12078.0000,1181.0000,-2498.0000,-10720.0000,0.6722
34097948,101262.703125,21.250000,5.188075,2.0900,2.4500,8.3700,-11.4375,-7.6875,-11.3125,0.0000,0.0000,0.0000,12029.0000,1116.0000,-2475.0000,-10788.0000,0.7463
34128258,101278.382812,21.250000,3.882045,2.0300,2.7300,8.3800,-5.3750,-1.8125,-16.9375,0.0000,0.0000,0.0000,11984.0000,1091.0000,-2470.0000,-10841.0000,0.8026
34158405,101274.460938,21.250000,4.208410,1.7500,2.8200,8.1900,-17.0625,5.2500,-17.5625,0.0000,0.0000,0.0000,11945.0000,1061.0000,-2404.0000,-10902.0000,0.8353
34189866,101279.453125,21.250000,3.792576,1.4200,2.0600,7.9800,-30.9375,-11.5625,-27.0625,0.0000,0.0000,0.0000,11885.0000,969.0000,-2327.0000,-10992.0000,0.6867
34228588,101283.367188,21.250000,3.466732,1.8300,2.1600,8.4800,-8.1875,-6.3125,-21.4375,0.0000,0.0000,0.0000,11780.0000,888.0000,-2315.0000,-11114.0000,0.6451
34278342,101269.460938,21.240000,4.625277,1.3500,2.2600,8.6500,-29.1875,-0.0625,-15.3125,0.0000,0.0000,0.0000,11720.0000,778.0000,-2204.0000,-11208.0000,0.6541
34310240,101273.757812,21.260000,4.267380,1.5500,1.0800,8.4400,-1.8750,-41.6875,-15.0625,0.0000,0.0000,0.0000,11661.0000,671.0000,-2263.0000,-11265.0000,0.6600
34339795,101279.453125,21.250000,3.792576,2.1000,2.2400,8.9000,11.6875,-30.1250,-6.2500,0.0000,0.0000,0.0000,11608.0000,595.0000,-2408.0000,-11293.0000,0.5857
34369394,101266.617188,21.250000,4.861679,1.8400,2.7100,8.7900,-1.0000,-4.1250,-6.3125,0.0000,0.0000,0.0000,11586.0000,585.0000,-2447.0000,-11308.0000,0.6600
34399223,101279.453125,21.250000,3.792576,1.1200,1.2400,8.6100,-17.5625,-24.3750,-7.3750,0.0000,0.0000,0.0000,11556.0000,495.0000,-2444.0000,-11343.0000,0.6600
34430584,101278.382812,21.250000,3.882045,2.2100,1.4300,8.3200,-11.8125,-32.5000,1.1250,0.0000,0.0000,0.0000,11535.0000,342.0000,-2482.0000,-11362.0000,0.5294
34460259,101279.453125,21.250000,3.792576,2.0700,1.4200,8.1200,-6.6875,-8.1250,3.6875,0.0000,0.0000,0.0000,11537.0000,290.0000,-2508.0000,-11356.0000,0.5204
34489847,101283.367188,21.250000,3.466732,1.1000,1.4100,8.8900,-17.9375,-17.5000,2.3750,0.0000,0.0000,0.0000,11538.0000,202.0000,-2498.0000,-11359.0000,0.4463
34529133,101282.296875,21.250000,3.555690,1.6300,1.2600,8.9100,-9.1875,-18.8750,-0.0625,0.0000,0.0000,0.0000,11523.0000,90.0000,-2529.0000,-11369.0000,0.4226
34559500,101279.453125,21.250000,3.792576,2.3600,1.3000,9.2200,11.9375,5.8750,-13.6250,0.0000,0.0000,0.0000,11498.0000,135.0000,-2561.0000,-11387.0000,0.4552
34589650,101279.453125,21.250000,3.792576,1.6900,1.3800,9.2700,19.0000,-2.0000,-16.5000,0.0000,0.0000,0.0000,11446.0000,202.0000,-2603.0000,-11428.0000,0.3719
34621102,101277.679688,21.260000,3.940505,1.8300,2.5700,9.5600,-26.1250,3.6875,-12.3125,0.0000,0.0000,0.0000,11405.0000,167.0000,-2556.0000,-11481.0000,0.3392
34650745,101278.757812,21.260000,3.850527,2.0200,2.5800,10.3400,-32.3125,33.8750,-15.8125,0.0000,0.0000,0.0000,11381.0000,147.0000,-2397.0000,-11539.0000,0.3450
34680451,101283.367188,21.250000,3.466732,1.5800,1.1500,10.4300,-24.8125,45.0625,-26.8125,0.0000,0.0000,0.0000,11340.0000,209.0000,-2191.0000,-11619.0000,0.2055
34711824,101277.679688,21.260000,3.940505,0.8000,2.0500,10.1100,-37.2500,52.5625,-22.2500,0.0000,0.0000,0.0000,11298.0000,291.0000,-1965.0000,-11698.0000,0.2203
34741437,101289.437500,21.260000,2.961466,0.0500,1.1800,10.1400,-47.8125,34.6250,-12.4375,0.0000,0.0000,0.0000,11272.0000,282.0000,-1693.0000,-11765.0000,0.1282
34771069,101291.593750,21.270000,2.781528,0.8800,1.6400,10.1300,-3.7500,22.9375,-9.4375,0.0000,0.0000,0.0000,11255.0000,293.0000,-1561.0000,-11800.0000,0.0271
34800700,101289.437500,21.260000,2.961466,1.2200,1.9100,9.7300,-15.6875,13.0000,-14.6250,0.0000,0.0000,0.0000,11229.0000,323.0000,-1492.0000,-11833.0000,-0.0234
34832144,101290.523438,21.260000,2.870988,0.9200,1.8900,10.4800,-32.0000,6.8125,-24.6250,0.0000,0.0000,0.0000,11165.0000,283.0000,-1384.0000,-11907.0000,-0.0919
34861780,101281.601562,21.260000,3.613640,0.9500,0.8900,10.9400,-43.8125,17.6875,-23.8125,0.0000,0.0000,0.0000,11098.0000,207.0000,-1215.0000,-11989.0000,-0.1098
34891451,101279.453125,21.250000,3.792576,0.9700,1.2800,10.4700,-21.1250,21.2500,-22.9375,0.0000,0.0000,0.0000,11035.0000,200.0000,-1069.0000,-12061.0000,-0.1098
34930448,101274.460938,21.250000,4.208410,0.5000,0.9600,10.4700,-3.3750,17.6250,-20.0000,0.0000,0.0000,0.0000,10959.0000,251.0000,-964.0000,-12139.0000,-0.0830
34960818,101281.601562,21.260000,3.613640,0.0000,0.6400,10.3800,-2.9375,16.9375,-18.0625,0.0000,0.0000,0.0000,10900.0000,298.0000,-910.0000,-12194.0000,-0.1067
34990999,101287.289062,21.250000,3.140390,-0.1500,1.0100,9.9200,-4.5000,18.5000,-7.9375,0.0000,0.0000,0.0000,10874.0000,338.0000,-843.0000,-12222.0000,-0.1393
35022451,101289.437500,21.260000,2.961466,-0.3500,0.7400,9.1500,-32.1875,28.5625,-23.5000,0.0000,0.0000,0.0000,10827.0000,355.0000,-694.0000,-12272.0000,-0.2372
35052128,101281.601562,21.260000,3.613640,-0.4700,0.8100,10.2300,-30.6875,18.7500,-18.3125,0.0000,0.0000,0.0000,10762.0000,342.0000,-519.0000,-12338.0000,-0.1720
35081777,101281.601562,21.260000,3.613640,-0.1000,1.5400,10.1600,-10.2500,-18.7500,2.1875,0.0000,0.0000,0.0000,10754.0000,279.0000,-485.0000,-12348.0000,-0.0888
35113207,101281.601562,21.260000,3.613640,-0.5100,0.9100,10.4900,-28.0625,-33.3125,-8.3125,0.0000,0.0000,0.0000,10740.0000,126.0000,-506.0000,-12362.0000,-0.0236
35142824,101283.367188,21.250000,3.466732,-0.5000,0.0500,10.5500,-15.2500,-43.4375,11.5000,0.0000,0.0000,0.0000,10741.0000,-60.0000,-545.0000,-12360.0000,0.0360
35172527,101282.679688,21.260000,3.524173,0.2200,0.3200,10.6000,-15.7500,-44.6250,24.7500,0.0000,0.0000,0.0000,10804.0000,-244.0000,-628.0000,-12299.0000,0.0271
35203960,101293.359375,21.260000,2.634631,-0.0700,-0.0900,11.0200,-9.6875,-14.9375,18.1875,0.0000,0.0000,0.0000,10859.0000,-368.0000,-657.0000,-12245.0000,-0.0887
35233557,101287.289062,21.250000,3.140390,0.0300,0.3800,11.5300,11.3125,25.5000,29.1875,0.0000,0.0000,0.0000,10938.0000,-324.0000,-629.0000,-12177.0000,-0.1955
35263175,101282.679688,21.260000,3.524173,-0.0300,0.6200,10.3400,7.5625,54.1875,22.7500,0.0000,0.0000,0.0000,11029.0000,-157.0000,-541.0000,-12103.0000,-0.2045
35301761,101282.679688,21.260000,3.524173,-0.8500,0.4100,10.2400,8.0625,65.3125,18.7500,0.0000,0.0000,0.0000,11110.0000,124.0000,-334.0000,-12036.0000,-0.1661
35332097,101283.367188,21.250000,3.466732,-0.8700,0.7400,9.9800,7.4375,25.3750,32.7500,0.0000,0.0000,0.0000,11200.0000,255.0000,-244.0000,-11952.0000,-0.1156
35362090,101277.679688,21.260000,3.940505,-0.0400,0.9800,9.5900,-16.1250,3.8750,30.1875,0.0000,0.0000,0.0000,11297.0000,238.0000,-174.0000,-11863.0000,-0.0829
35392258,101281.601562,21.260000,3.613640,0.3000,1.0300,9.5300,-13.6875,1.9375,29.9375,0.0000,0.0000,0.0000,11388.0000,206.0000,-132.0000,-11777.0000,-0.0829
35423711,101290.523438,21.260000,2.870988,-0.4400,0.6900,10.0200,0.8125,3.0625,22.5000,0.0000,0.0000,0.0000,11464.0000,223.0000,-133.0000,-11703.0000,-0.1571
35453380,101281.601562,21.260000,3.613640,-0.2900,-0.3900,10.2500,-11.5625,20.4375,25.6875,0.0000,0.0000,0.0000,11532.0000,230.0000,-71.0000,-11635.0000,-0.1425
35483057,101289.437500,21.260000,2.961466,0.0500,0.5700,9.9400,13.6250,50.7500,51.5000,0.0000,0.0000,0.0000,11655.0000,362.0000,47.0000,-11509.0000,-0.1987
35514461,101293.359375,21.260000,2.634631,-0.1600,1.2800,9.7000,21.5625,42.4375,59.5000,0.0000,0.0000,0.0000,11823.0000,570.0000,109.0000,-11327.0000,-0.1987
35544106,101278.757812,21.260000,3.850527,-0.5800,1.1400,9.7700,8.6875,29.1250,43.8750,0.0000,0.0000,0.0000,11959.0000,704.0000,161.0000,-11175.0000,-0.1277
35573724,101283.750000,21.270000,3.434707,-0.7800,0.7200,9.8300,-1.7500,27.4375,37.3750,0.0000,0.0000,0.0000,12066.0000,788.0000,236.0000,-11053.0000,-0.1367
35605138,101283.367188,21.250000,3.466732,-0.7600,0.5300,9.3300,0.8750,15.1250,42.8750,0.0000,0.0000,0.0000,12178.0000,845.0000,287.0000,-10924.0000,-0.1424
35634922,101290.523438,21.260000,2.870988,-0.9000,0.4900,9.0900,-2.0000,5.9375,43.0000,0.0000,0.0000,0.0000,12296.0000,870.0000,311.0000,-10789.0000,-0.2020
35664499,101289.437500,21.260000,2.961466,-0.8700,0.2200,8.9000,0.1250,-5.1875,46.0000,0.0000,0.0000,0.0000,12418.0000,868.0000,294.0000,-10648.0000,-0.2999
35702830,101289.437500,21.260000,2.961466,-0.7900,0.2400,8.9700,-2.4375,-13.0000,52.5000,0.0000,0.0000,0.0000,12598.0000,824.0000,235.0000,-10440.0000,-0.3651
35733265,101283.750000,21.270000,3.434707,-0.5300,0.5500,9.4300,5.6250,-27.3125,56.6250,0.0000,0.0000,0.0000,12742.0000,783.0000,137.0000,-10269.0000,-0.3087
35763378,101281.601562,21.260000,3.613640,-0.4100,0.8600,9.4700,16.7500,-40.6875,56.7500,0.0000,0.0000,0.0000,12888.0000,737.0000,-30.0000,-10090.0000,-0.3087
35793390,101283.367188,21.250000,3.466732,-0.2100,0.7800,9.5400,0.8750,-35.8750,46.5625,0.0000,0.0000,0.0000,13014.0000,643.0000,-174.0000,-9931.0000,-0.2582
35824677,101289.437500,21.260000,2.961466,-0.2700,0.3700,9.7400,6.2500,-15.5000,40.6875,0.0000,0.0000,0.0000,13117.0000,600.0000,-265.0000,-9795.0000,-0.2255
35854372,101278.382812,21.250000,3.882045,-0.0100,0.6400,10.0400,3.6875,-16.0000,45.5625,0.0000,0.0000,0.0000,13222.0000,578.0000,-329.0000,-9652.0000,-0.2224
35883880,101281.601562,21.260000,3.613640,0.5000,0.9800,9.7400,-1.5000,-17.5000,46.0000,0.0000,0.0000,0.0000,13335.0000,532.0000,-399.0000,-9495.0000,-0.2045
35915272,101282.679688,21.260000,3.524173,0.6700,0.5100,9.7800,-0.8750,-3.7500,34.6875,0.0000,0.0000,0.0000,13425.0000,502.0000,-430.0000,-9368.0000,-0.1987
35944828,101289.437500,21.260000,2.961466,0.8100,0.5200,9.8900,-11.9375,10.0625,29.0625,0.0000,0.0000,0.0000,13499.0000,490.0000,-397.0000,-9263.0000,-0.1897
35974469,101287.289062,21.250000,3.140390,0.8400,0.4500,9.9900,-15.3125,18.2500,30.0000,0.0000,0.0000,0.0000,13572.0000,459.0000,-319.0000,-9161.0000,-0.1718
36015469,101287.289062,21.250000,3.140390,1.6100,0.8400,10.0600,1.4375,11.1875,31.0625,0.0000,0.0000,0.0000,13668.0000,447.0000,-259.0000,-9020.0000,-0.1539
36045132,101286.218750,21.250000,3.229345,1.6800,0.4800,9.7600,1.1875,-1.3125,16.7500,0.0000,0.0000,0.0000,13719.0000,470.0000,-264.0000,-8941.0000,-0.1744
36074785,101286.218750,21.250000,3.229345,1.9900,0.0200,9.3300,-11.2500,-7.0000,2.9375,0.0000,0.0000,0.0000,13732.0000,429.0000,-267.0000,-8922.0000,-0.2129
36113871,101283.367188,21.250000,3.466732,3.0600,0.6700,8.8800,-8.5625,-0.7500,2.8125,0.0000,0.0000,0.0000,13741.0000,377.0000,-246.0000,-8912.0000,-0.2129
36144393,101282.296875,21.250000,3.555690,2.6500,-0.2900,9.1600,-8.5000,-4.4375,-16.1250,0.0000,0.0000,0.0000,13718.0000,341.0000,-235.0000,-8948.0000,-0.1534
36174572,101279.453125,21.250000,3.792576,2.6500,-1.1000,9.1100,-12.4375,-9.9375,-18.3125,0.0000,0.0000,0.0000,13675.0000,283.0000,-236.0000,-9016.0000,-0.1624
36204693,101284.070312,21.240000,3.408274,2.4300,-1.0600,8.6000,-1.3750,-9.8750,-16.3750,0.0000,0.0000,0.0000,13638.0000,252.0000,-267.0000,-9072.0000,-0.1829
36236135,101287.289062,21.250000,3.140390,2.1000,-1.3000,8.8700,-6.6875,-7.8125,-17.7500,0.0000,0.0000,0.0000,13596.0000,219.0000,-282.0000,-9136.0000,-0.2213
36265773,101286.218750,21.250000,3.229345,1.8900,-0.8300,9.3000,-13.6250,-19.9375,-14.4375,0.0000,0.0000,0.0000,13560.0000,144.0000,-306.0000,-9190.0000,-0.1945
36295415,101283.367188,21.250000,3.466732,1.8600,-0.7900,9.3900,-20.3750,-34.6250,-19.6875,0.0000,0.0000,0.0000,13518.0000,17.0000,-370.0000,-9250.0000,-0.1619
36326830,101277.296875,21.240000,3.972531,1.6200,-1.4400,9.3800,-24.7500,-34.4375,-36.8750,0.0000,0.0000,0.0000,13440.0000,-147.0000,-436.0000,-9359.0000,-0.0787
36356499,101286.218750,21.250000,3.229345,0.1300,-0.7600,12.2500,-25.2500,-28.6250,-33.3750,0.0000,0.0000,0.0000,13349.0000,-292.0000,-482.0000,-9482.0000,-0.0787
36386082,101291.210938,21.250000,2.813550,1.7600,-0.9000,10.4800,-33.5625,-35.8750,-27.5000,0.0000,0.0000,0.0000,13271.0000,-504.0000,-521.0000,-9581.0000,-0.1202
36417525,101280.148438,21.240000,3.734625,1.4400,-0.3400,9.7900,0.1250,1.8125,-24.0625,0.0000,0.0000,0.0000,13209.0000,-564.0000,-531.0000,-9662.0000,-0.0935
36447099,101282.296875,21.250000,3.555690,0.9300,-0.3100,8.8500,0.8750,9.8125,-32.6250,0.0000,0.0000,0.0000,13137.0000,-527.0000,-510.0000,-9763.0000,-0.0935
36476746,101279.453125,21.250000,3.792576,0.2900,-0.3200,8.7600,-8.2500,1.3750,-31.6250,0.0000,0.0000,0.0000,13055.0000,-529.0000,-484.0000,-9873.0000,-0.0935
36515248,101278.382812,21.250000,3.882045,0.0500,-0.3000,9.6500,-22.4375,-20.5625,-30.2500,0.0000,0.0000,0.0000,12947.0000,-669.0000,-495.0000,-10006.0000,-0.0461
36545631,101283.367188,21.250000,3.466732,0.7200,-1.6400,11.1700,-32.7500,-40.1875,-28.6250,0.0000,0.0000,0.0000,12862.0000,-863.0000,-542.0000,-10098.0000,-0.0134
36575739,101284.453125,21.260000,3.376250,0.5600,-0.8300,10.2900,25.8125,13.3750,-24.0000,0.0000,0.0000,0.0000,12793.0000,-857.0000,-561.0000,-10185.0000,0.0012
36607150,101283.367188,21.250000,3.466732,0.2700,-0.0400,9.7500,0.7500,6.4375,-26.5000,0.0000,0.0000,0.0000,12722.0000,-832.0000,-560.0000,-10275.0000,0.0012
36636796,101286.218750,21.250000,3.229345,0.3900,-0.2800,9.0900,2.6250,3.9375,-26.5625,0.0000,0.0000,0.0000,12653.0000,-809.0000,-554.0000,-10362.0000,-0.0731
36666431,101281.218750,21.240000,3.645665,0.2700,-0.5000,8.9500,0.5000,11.0625,-22.7500,0.0000,0.0000,0.0000,12590.0000,-790.0000,-522.0000,-10442.0000,-0.0314
36696196,101277.296875,21.240000,3.972531,0.2400,-0.4200,9.9600,38.2500,12.5625,-18.7500,0.0000,0.0000,0.0000,12542.0000,-680.0000,-545.0000,-10506.0000,0.0845
36727594,101281.218750,21.240000,3.645665,-0.3900,2.6100,8.9800,83.6875,-3.8125,-11.7500,0.0000,0.0000,0.0000,12516.0000,-445.0000,-728.0000,-10539.0000,0.0756
36757229,101292.976562,21.240000,2.666654,-0.3900,0.7900,10.8100,2.0000,6.7500,-4.4375,0.0000,0.0000,0.0000,12507.0000,-377.0000,-759.0000,-10550.0000,-0.0133
36786850,101286.218750,21.250000,3.229345,0.5500,1.4400,9.5500,-7.2500,11.6875,-34.3125,0.0000,0.0000,0.0000,12460.0000,-355.0000,-717.0000,-10608.0000,-0.0697
36818312,101279.453125,21.250000,3.792576,0.5400,0.9500,9.9700,-2.2500,9.0000,-20.6875,0.0000,0.0000,0.0000,12381.0000,-335.0000,-675.0000,-10704.0000,-0.0786
36859402,101286.218750,21.250000,3.229345,0.0000,1.0100,9.1600,9.5625,3.6875,5.1875,0.0000,0.0000,0.0000,12362.0000,-309.0000,-666.0000,-10728.0000,-0.1023
36956009,101294.062500,21.250000,2.576179,1.0900,0.1800,8.8300,3.4375,16.5000,47.0000,0.0000,0.0000,0.0000,12543.0000,-201.0000,-553.0000,-10524.0000,-0.1824
36996346,101287.289062,21.250000,3.140390,1.1900,0.0600,9.3900,4.1250,32.2500,59.4375,0.0000,0.0000,0.0000,12751.0000,-87.0000,-434.0000,-10278.0000,-0.2150
37027043,101282.296875,21.250000,3.555690,0.8900,0.4900,9.7500,2.6250,33.5625,42.1250,0.0000,0.0000,0.0000,12875.0000,2.0000,-326.0000,-10128.0000,-0.1824
37057163,101287.289062,21.250000,3.140390,1.2100,-0.0100,9.9500,-0.8125,27.5625,33.7500,0.0000,0.0000,0.0000,12970.0000,72.0000,-228.0000,-10008.0000,-0.2329
37088611,101287.289062,21.250000,3.140390,1.0100,-0.5200,10.6100,-0.9375,6.6875,23.6250,0.0000,0.0000,0.0000,13041.0000,104.0000,-174.0000,-9916.0000,-0.3161
37118229,101283.367188,21.250000,3.466732,1.9900,-0.4600,9.6500,-2.5000,5.1875,6.1875,0.0000,0.0000,0.0000,13070.0000,108.0000,-157.0000,-9878.0000,-0.3340
37147829,101285.140625,21.240000,3.319318,2.2600,0.4600,9.0900,-1.7500,2.1250,16.3125,0.0000,0.0000,0.0000,13098.0000,110.0000,-143.0000,-9841.0000,-0.2687
37177649,101290.140625,21.250000,2.902503,2.1100,-0.4400,9.8800,2.3750,2.8750,34.3750,0.0000,0.0000,0.0000,13169.0000,109.0000,-122.0000,-9747.0000,-0.3014
