timestamp,baro_pressure,baro_temperature,baro_altitude,accel_x,accel_y,accel_z,gyro_x,gyro_y,gyro_z,mag_x,mag_y,mag_z,quat_w,quat_x,quat_y,quat_z,fusion_altitude,fusion_velocity
13786227,101289.890625,21.330000,2.923343,0.2400,0.1700,9.5600,-0.0625,-0.1250,0.0625,0.0000,0.0000,0.0000,16382.0000,164.0000,-213.0000,0.0000,0.2339
13818531,101289.890625,21.330000,2.923343,0.2400,0.1800,9.5800,0.0000,-0.1250,0.0625,0.0000,0.0000,0.0000,16382.0000,164.0000,-213.0000,0.0000,0.4677
13849012,101282.039062,21.330000,3.577548,0.2300,0.1700,9.5800,0.0000,-0.1250,-0.0625,0.0000,0.0000,0.0000,16382.0000,164.0000,-213.0000,0.0000,0.7539
13879413,101283.117188,21.330000,3.487574,0.2500,0.1800,9.6000,0.0000,-0.0625,-0.1250,0.0000,0.0000,0.0000,16382.0000,164.0000,-213.0000,0.0000,1.0329
13909290,101290.960938,21.330000,2.834391,0.2300,0.1900,9.5700,-0.1250,0.0625,-0.1250,0.0000,0.0000,0.0000,16382.0000,164.0000,-213.0000,0.0000,1.2597
13939296,101282.039062,21.330000,3.577548,0.2400,0.1900,9.5700,-0.0625,-0.0625,-0.0625,0.0000,0.0000,0.0000,16382.0000,164.0000,-213.0000,0.0000,1.5459
13969685,101283.117188,21.330000,3.487574,0.2300,0.1800,9.5700,0.0000,0.0625,0.0625,0.0000,0.0000,0.0000,16382.0000,164.0000,-213.0000,0.0000,1.8249
13999506,101287.039062,21.330000,3.161231,0.2500,0.1900,9.5500,0.0000,0.0000,0.0000,0.0000,0.0000,0.0000,16382.0000,164.0000,-213.0000,0.0000,2.0778
14029490,101283.117188,21.330000,3.487574,0.2300,0.1800,9.6000,-0.1250,0.1250,-0.0625,0.0000,0.0000,0.0000,16382.0000,164.0000,-213.0000,0.0000,2.3568
14059715,101283.117188,21.330000,3.487574,0.2300,0.1700,9.5600,0.0000,-0.2500,0.0625,0.0000,0.0000,0.0000,16382.0000,164.0000,-213.0000,0.0000,2.6358
14090069,101283.117188,21.330000,3.487574,0.2500,0.1800,9.5600,-0.1250,0.0000,-0.1250,0.0000,0.0000,0.0000,16382.0000,164.0000,-213.0000,0.0000,2.6225
14119939,101286.343750,21.350000,3.218671,0.2300,0.1700,9.5900,-0.0625,0.0000,0.0625,0.0000,0.0000,0.0000,16382.0000,164.0000,-213.0000,0.0000,2.5876
14149992,101283.117188,21.330000,3.487574,0.2500,0.1700,9.5800,-0.0625,0.0000,-0.0625,0.0000,0.0000,0.0000,16382.0000,164.0000,-213.0000,0.0000,2.5089
14189635,101285.273438,21.340000,3.308135,0.2400,0.1600,9.5600,-0.1250,-0.1250,0.0000,0.0000,0.0000,0.0000,16382.0000,164.0000,-213.0000,0.0000,2.4248
14220276,101292.031250,21.340000,2.745439,0.2300,0.1800,9.5700,-0.1875,0.0000,0.0000,0.0000,0.0000,0.0000,16382.0000,164.0000,-213.0000,0.0000,2.3610
14250392,101284.187500,21.340000,3.398616,0.2500,0.1800,9.6000,0.0625,-0.0625,-0.0625,0.0000,0.0000,0.0000,16382.0000,164.0000,-213.0000,0.0000,2.2751
14281723,101275.281250,21.330000,4.140289,0.2300,0.1600,9.5800,0.0625,-0.1875,0.0000,0.0000,0.0000,0.0000,16382.0000,164.0000,-213.0000,0.0000,2.2576
14311294,101286.343750,21.350000,3.218671,0.2400,0.2000,9.5800,0.0000,0.0000,-0.1250,0.0000,0.0000,0.0000,16382.0000,164.0000,-213.0000,0.0000,2.1990
14340873,101284.187500,21.340000,3.398616,0.2300,0.1900,9.5800,0.0000,0.0000,0.0625,0.0000,0.0000,0.0000,16382.0000,164.0000,-213.0000,0.0000,2.1221
14370749,101280.273438,21.340000,3.724458,0.2600,0.1900,9.6000,-0.0625,0.1875,0.0625,0.0000,0.0000,0.0000,16382.0000,164.0000,-213.0000,0.0000,2.0713
14402104,101281.343750,21.340000,3.635499,0.2500,0.1800,9.5900,-0.0625,-0.0625,0.0000,0.0000,0.0000,0.0000,16382.0000,164.0000,-213.0000,0.0000,2.0134
14431676,101287.421875,21.350000,3.129207,0.2300,0.1700,9.5900,0.0625,0.0000,0.1250,0.0000,0.0000,0.0000,16382.0000,164.0000,-213.0000,0.0000,1.9418
14471297,101292.031250,21.340000,2.745439,0.2500,0.1900,9.5700,-0.1250,-0.1250,0.0625,0.0000,0.0000,0.0000,16382.0000,164.0000,-213.0000,0.0000,1.8127
14529912,101285.273438,21.340000,3.308135,0.2500,0.1700,9.5600,0.0000,-0.1250,-0.0625,0.0000,0.0000,0.0000,16382.0000,164.0000,-213.0000,0.0000,1.7466
14560999,101284.187500,21.340000,3.398616,0.2400,0.1800,9.5800,-0.0625,0.1250,0.0000,0.0000,0.0000,0.0000,16382.0000,164.0000,-213.0000,0.0000,1.7439
14591328,101280.273438,21.340000,3.724458,0.2200,0.2000,9.5600,0.0000,0.1250,0.0000,0.0000,0.0000,0.0000,16382.0000,164.0000,-213.0000,0.0000,1.7020
14621377,101287.421875,21.350000,3.129207,0.2200,0.1900,9.5700,0.0000,0.0625,0.0000,0.0000,0.0000,0.0000,16382.0000,164.0000,-213.0000,0.0000,1.5383
14661078,101291.343750,21.350000,2.802368,0.2400,0.1800,9.5900,0.0000,0.1875,-0.1875,0.0000,0.0000,0.0000,16382.0000,164.0000,-213.0000,0.0000,1.4406
14691605,101280.273438,21.340000,3.724458,0.2500,0.1800,9.5800,-0.1250,0.0000,0.0000,0.0000,0.0000,0.0000,16382.0000,164.0000,-213.0000,0.0000,1.3987
14721724,101289.187500,21.340000,2.982306,0.2500,0.1800,9.5700,0.0625,0.1250,0.0000,0.0000,0.0000,0.0000,16382.0000,164.0000,-213.0000,0.0000,1.2649
14753076,101285.273438,21.340000,3.308135,0.2300,0.1800,9.6000,-0.0625,-0.0625,-0.0625,0.0000,0.0000,0.0000,16382.0000,164.0000,-213.0000,0.0000,1.1660
14782660,101276.351562,21.340000,4.051326,0.2500,0.1700,9.5900,0.1250,-0.1250,-0.1875,0.0000,0.0000,0.0000,16382.0000,164.0000,-213.0000,0.0000,1.1771
14812210,101289.187500,21.340000,2.982306,0.2400,0.2000,9.5700,0.0000,0.1250,-0.1250,0.0000,0.0000,0.0000,16382.0000,164.0000,-213.0000,0.0000,1.1412
14843531,101283.492188,21.350000,3.456565,0.2500,0.1900,9.5700,0.0000,-0.0625,-0.0625,0.0000,0.0000,0.0000,16382.0000,164.0000,-213.0000,0.0000,1.0869
14873045,101287.421875,21.350000,3.129207,0.2500,0.1800,9.5800,-0.0625,-0.1250,0.0625,0.0000,0.0000,0.0000,16382.0000,164.0000,-213.0000,0.0000,0.9974
14902651,101279.570312,21.350000,3.782917,0.2400,0.1700,9.5800,-0.1250,0.1250,-0.0625,0.0000,0.0000,0.0000,16382.0000,164.0000,-213.0000,0.0000,0.9276
14932454,101283.492188,21.350000,3.456565,0.2300,0.1900,9.6100,-0.1250,0.0625,-0.1250,0.0000,0.0000,0.0000,16382.0000,164.0000,-213.0000,0.0000,0.8912
14963830,101283.492188,21.350000,3.456565,0.2400,0.1800,9.5800,0.0000,-0.1875,0.0625,0.0000,0.0000,0.0000,16382.0000,164.0000,-213.0000,0.0000,0.8875
14993378,101293.109375,21.340000,2.655471,0.2400,0.1700,9.6000,-0.1250,-0.1250,-0.0625,0.0000,0.0000,0.0000,16382.0000,164.0000,-213.0000,0.0000,0.7274
15022951,101283.492188,21.350000,3.456565,0.2300,0.1700,9.5800,0.0000,-0.0625,-0.0625,0.0000,0.0000,0.0000,16382.0000,164.0000,-213.0000,0.0000,0.7057
15062330,101288.109375,21.340000,3.071768,0.2500,0.2000,9.5800,0.0625,-0.2500,-0.1250,0.0000,0.0000,0.0000,16382.0000,164.0000,-213.0000,0.0000,0.6207
15092781,101291.343750,21.350000,2.802368,0.2600,0.1900,9.5700,0.0625,0.0000,0.0625,0.0000,0.0000,0.0000,16382.0000,164.0000,-213.0000,0.0000,0.4397
15123004,101285.273438,21.340000,3.308135,0.2300,0.1600,9.5700,0.0000,-0.0625,0.0000,0.0000,0.0000,0.0000,16382.0000,164.0000,-213.0000,0.0000,0.4061
15153055,101290.257812,21.350000,2.892845,0.2400,0.1700,9.5900,0.0000,0.0000,0.0000,0.0000,0.0000,0.0000,16382.0000,164.0000,-213.0000,0.0000,0.2919
15184404,101293.492188,21.360001,2.623449,0.2300,0.1800,9.5800,-0.0625,0.0625,-0.0625,0.0000,0.0000,0.0000,16382.0000,164.0000,-213.0000,0.0000,0.1889
15214003,101288.492188,21.350000,3.039745,0.2400,0.2100,9.5800,0.0625,-0.0625,0.0000,0.0000,0.0000,0.0000,16382.0000,164.0000,-213.0000,0.0000,0.0538
15243602,101277.421875,21.340000,3.961856,0.2400,0.1700,9.5600,0.0000,0.1250,-0.1250,0.0000,0.0000,0.0000,16382.0000,164.0000,-213.0000,0.0000,0.0251
15274899,101280.648438,21.350000,3.693449,0.2400,0.1800,9.5900,0.0625,0.1250,-0.1250,0.0000,0.0000,0.0000,16382.0000,164.0000,-213.0000,0.0000,-0.0251
15304391,101288.492188,21.350000,3.039745,0.2500,0.1900,9.6000,-0.0625,0.1250,-0.1250,0.0000,0.0000,0.0000,16382.0000,164.0000,-213.0000,0.0000,-0.0475
15333954,101286.343750,21.350000,3.218671,0.2300,0.1800,9.5900,0.0000,0.1250,0.1250,0.0000,0.0000,0.0000,16382.0000,164.0000,-213.0000,0.0000,-0.1357
15365342,101289.187500,21.340000,2.982306,0.2400,0.1800,9.5800,0.0625,-0.0625,0.0000,0.0000,0.0000,0.0000,16382.0000,164.0000,-213.0000,0.0000,-0.1458
15394877,101285.273438,21.340000,3.308135,0.2400,0.1800,9.5600,0.0000,0.0625,-0.0625,0.0000,0.0000,0.0000,16382.0000,164.0000,-213.0000,0.0000,-0.1029
15424513,101283.117188,21.330000,3.487574,0.2600,0.1800,9.5800,-0.1250,0.1250,-0.0625,0.0000,0.0000,0.0000,16382.0000,164.0000,-213.0000,0.0000,-0.0832
15454059,101279.570312,21.350000,3.782917,0.2400,0.1700,9.5900,-0.1250,-0.1250,0.0625,0.0000,0.0000,0.0000,16382.0000,164.0000,-213.0000,0.0000,-0.0001
15493536,101278.500000,21.350000,3.872386,0.2300,0.1800,9.5900,-0.0625,-0.1250,0.1250,0.0000,0.0000,0.0000,16382.0000,164.0000,-213.0000,0.0000,0.1041
15524056,101276.351562,21.340000,4.051326,0.2400,0.1700,9.6100,-0.0625,0.0000,-0.0625,0.0000,0.0000,0.0000,16382.0000,164.0000,-213.0000,0.0000,0.1958
15554134,101279.570312,21.350000,3.782917,0.2300,0.1600,9.6000,0.0625,-0.0625,-0.0625,0.0000,0.0000,0.0000,16382.0000,164.0000,-213.0000,0.0000,0.1720
15585484,101295.257812,21.350000,2.476555,0.2400,0.1700,9.6000,0.0000,0.0625,-0.0625,0.0000,0.0000,0.0000,16382.0000,164.0000,-213.0000,0.0000,0.0640
15615077,101275.648438,21.350000,4.109787,0.2500,0.1700,9.5800,0.0625,0.1875,-0.0625,0.0000,0.0000,0.0000,16382.0000,164.0000,-213.0000,0.0000,0.1585
15644723,101291.343750,21.350000,2.802368,0.2300,0.1800,9.5700,-0.0625,-0.1875,0.0000,0.0000,0.0000,0.0000,16382.0000,164.0000,-213.0000,0.0000,0.1306
15674557,101285.273438,21.340000,3.308135,0.2500,0.1600,9.5800,-0.0625,0.0000,-0.1250,0.0000,0.0000,0.0000,16382.0000,164.0000,-213.0000,0.0000,0.1668
15705894,101283.492188,21.350000,3.456565,0.2300,0.1900,9.5800,-0.0625,0.0000,0.0000,0.0000,0.0000,0.0000,16382.0000,164.0000,-213.0000,0.0000,0.1769
15735514,101284.187500,21.340000,3.398616,0.2400,0.1800,9.5800,-0.0625,-0.0625,0.0000,0.0000,0.0000,0.0000,16382.0000,164.0000,-213.0000,0.0000,0.1697
15765017,101295.257812,21.350000,2.476555,0.2500,0.1800,9.5900,-0.0625,0.0625,-0.0625,0.0000,0.0000,0.0000,16382.0000,164.0000,-213.0000,0.0000,0.0557
15796372,101279.570312,21.350000,3.782917,0.2400,0.1600,9.5800,-0.1875,0.0625,0.1250,0.0000,0.0000,0.0000,16382.0000,164.0000,-213.0000,0.0000,0.0260
15825948,101295.257812,21.350000,2.476555,0.2400,0.1700,9.6000,-0.1250,0.0625,0.0000,0.0000,0.0000,0.0000,16382.0000,164.0000,-213.0000,0.0000,-0.1130
15855522,101287.421875,21.350000,3.129207,0.2300,0.1900,9.5800,-0.0625,0.0625,-0.1250,0.0000,0.0000,0.0000,16382.0000,164.0000,-213.0000,0.0000,-0.1582
15894765,101279.570312,21.350000,3.782917,0.2400,0.1700,9.5800,-0.0625,0.0625,-0.1250,0.0000,0.0000,0.0000,16382.0000,164.0000,-213.0000,0.0000,-0.0388
15925154,101288.492188,21.350000,3.039745,0.2500,0.1800,9.5800,-0.1875,0.0000,0.0000,0.0000,0.0000,0.0000,16382.0000,164.0000,-213.0000,0.0000,-0.1386
15955267,101291.343750,21.350000,2.802368,0.2300,0.1900,9.5800,0.0000,0.1250,0.0000,0.0000,0.0000,0.0000,16382.0000,164.0000,-213.0000,0.0000,-0.1202
15985395,101287.421875,21.350000,3.129207,0.2400,0.1900,9.5900,0.0000,-0.0625,-0.1250,0.0000,0.0000,0.0000,16382.0000,164.0000,-213.0000,0.0000,-0.1280
16016690,101286.343750,21.350000,3.218671,0.2400,0.1700,9.5900,0.0000,0.0000,-0.0625,0.0000,0.0000,0.0000,16382.0000,164.0000,-213.0000,0.0000,-0.1535
16055597,101281.718750,21.360001,3.603982,0.2500,0.1700,9.5800,-0.0625,-0.0625,0.0625,0.0000,0.0000,0.0000,16382.0000,164.0000,-213.0000,0.0000,-0.1502
16117920,101273.500000,21.340000,4.288732,0.2400,0.1900,9.6000,0.0625,0.0000,0.1250,0.0000,0.0000,0.0000,16382.0000,164.0000,-213.0000,0.0000,0.0114
16149104,101277.421875,21.340000,3.961856,0.2500,0.1700,9.5900,0.1250,-0.1875,-0.0625,0.0000,0.0000,0.0000,16382.0000,164.0000,-213.0000,0.0000,0.0181
16178641,101285.273438,21.340000,3.308135,0.2600,0.1500,9.5900,0.1250,-0.1875,-0.0625,0.0000,0.0000,0.0000,16382.0000,164.0000,-213.0000,0.0000,0.1096
16208270,101279.570312,21.350000,3.782917,0.2400,0.1900,9.5800,0.0000,0.0000,0.0000,0.0000,0.0000,0.0000,16382.0000,164.0000,-213.0000,0.0000,0.1619
16237848,101288.492188,21.350000,3.039745,0.2400,0.1800,9.5700,-0.1875,0.0625,0.0000,0.0000,0.0000,0.0000,16382.0000,164.0000,-213.0000,0.0000,0.0828
16269226,101289.570312,21.360001,2.950283,0.2500,0.1800,9.6100,-0.0625,0.0625,-0.1250,0.0000,0.0000,0.0000,16382.0000,164.0000,-213.0000,0.0000,0.0893
16298738,101281.718750,21.360001,3.603982,0.2400,0.1700,9.5500,0.0000,-0.0625,0.0000,0.0000,0.0000,0.0000,16382.0000,164.0000,-213.0000,0.0000,0.1571
16328343,101289.570312,21.360001,2.950283,0.2300,0.1800,9.5900,0.0000,-0.1250,0.0625,0.0000,0.0000,0.0000,16382.0000,164.0000,-213.0000,0.0000,0.1463
16366399,101284.570312,21.350000,3.366592,0.2500,0.1800,9.5700,0.1250,-0.1250,0.0000,0.0000,0.0000,0.0000,16382.0000,164.0000,-213.0000,0.0000,0.1748
16396511,101277.796875,21.360001,3.930846,0.2500,0.1800,9.5600,0.2500,-0.1250,0.0000,0.0000,0.0000,0.0000,16382.0000,164.0000,-213.0000,0.0000,0.1885
16426597,101281.343750,21.340000,3.635499,0.2200,0.1700,9.6000,0.0625,0.0000,0.0000,0.0000,0.0000,0.0000,16382.0000,164.0000,-213.0000,0.0000,0.1196
16457923,101281.718750,21.360001,3.603982,0.2500,0.1800,9.5600,-0.0625,-0.0625,0.1875,0.0000,0.0000,0.0000,16382.0000,164.0000,-213.0000,0.0000,0.0743
16487507,101281.718750,21.360001,3.603982,0.2300,0.1900,9.5700,0.0000,0.0625,-0.0625,0.0000,0.0000,0.0000,16382.0000,164.0000,-213.0000,0.0000,0.1075
16517074,101289.570312,21.360001,2.950283,0.2400,0.2000,9.5900,0.0625,-0.1250,0.0000,0.0000,0.0000,0.0000,16382.0000,164.0000,-213.0000,0.0000,0.0344
16546980,101291.343750,21.350000,2.802368,0.2400,0.1900,9.5800,0.0625,0.1250,-0.0625,0.0000,0.0000,0.0000,16382.0000,164.0000,-213.0000,0.0000,0.0237
16578321,101282.421875,21.350000,3.545523,0.2400,0.1700,9.6000,0.1250,0.0625,0.0000,0.0000,0.0000,0.0000,16382.0000,164.0000,-213.0000,0.0000,0.0654
16607903,101287.421875,21.350000,3.129207,0.2600,0.1700,9.5700,-0.0625,0.0625,-0.0625,0.0000,0.0000,0.0000,16382.0000,164.0000,-213.0000,0.0000,0.0245
16637476,101288.492188,21.350000,3.039745,0.2500,0.1800,9.5600,0.1875,-0.1250,0.1250,0.0000,0.0000,0.0000,16382.0000,164.0000,-213.0000,0.0000,0.0341
16668891,101287.421875,21.350000,3.129207,0.2500,0.1800,9.5800,0.0000,-0.1250,0.0000,0.0000,0.0000,0.0000,16382.0000,164.0000,-213.0000,0.0000,0.0038
16698421,101283.492188,21.350000,3.456565,0.2600,0.1600,9.5700,0.0000,0.1250,-0.0625,0.0000,0.0000,0.0000,16382.0000,164.0000,-213.0000,0.0000,-0.0466
16728007,101289.570312,21.360001,2.950283,0.2300,0.1900,9.5700,0.0000,-0.0625,0.0000,0.0000,0.0000,0.0000,16382.0000,164.0000,-213.0000,0.0000,-0.1163
16757712,101283.492188,21.350000,3.456565,0.2500,0.2000,9.5800,-0.0625,-0.0625,-0.0625,0.0000,0.0000,0.0000,16382.0000,164.0000,-213.0000,0.0000,-0.1477
16797309,101276.726562,21.350000,4.019808,0.2400,0.1800,9.5800,0.0000,-0.1250,0.0000,0.0000,0.0000,0.0000,16382.0000,164.0000,-213.0000,0.0000,-0.1257
16827750,101287.421875,21.350000,3.129207,0.2300,0.1700,9.5900,0.0000,-0.0625,0.0625,0.0000,0.0000,0.0000,16382.0000,164.0000,-213.0000,0.0000,-0.0911
16857910,101281.718750,21.360001,3.603982,0.2300,0.2000,9.5900,-0.0625,-0.1875,-0.0625,0.0000,0.0000,0.0000,16382.0000,164.0000,-213.0000,0.0000,-0.0092
16889133,101292.406250,21.350000,2.713925,0.2400,0.1800,9.5800,-0.0625,-0.1250,-0.0625,0.0000,0.0000,0.0000,16382.0000,164.0000,-213.0000,0.0000,-0.0858
16918732,101281.718750,21.360001,3.603982,0.2300,0.1700,9.5800,-0.0625,-0.0625,0.0625,0.0000,0.0000,0.0000,16382.0000,164.0000,-213.0000,0.0000,-0.0461
16948360,101288.492188,21.350000,3.039745,0.2300,0.1600,9.5800,0.0000,0.1250,0.0625,0.0000,0.0000,0.0000,16382.0000,164.0000,-213.0000,0.0000,-0.0472
16979713,101285.648438,21.360001,3.276619,0.2300,0.1800,9.5900,0.0000,-0.2500,-0.0625,0.0000,0.0000,0.0000,16382.0000,164.0000,-213.0000,0.0000,-0.0318
17009232,101280.648438,21.350000,3.693449,0.2400,0.1800,9.5700,0.0625,0.0000,-0.1250,0.0000,0.0000,0.0000,16382.0000,164.0000,-213.0000,0.0000,-0.0123
17038788,101284.570312,21.350000,3.366592,0.2500,0.1900,9.5900,-0.0625,0.0000,-0.0625,0.0000,0.0000,0.0000,16382.0000,164.0000,-213.0000,0.0000,0.0377
17068615,101285.648438,21.360001,3.276619,0.2400,0.1900,9.5300,0.0000,0.0000,0.1250,0.0000,0.0000,0.0000,16382.0000,164.0000,-213.0000,0.0000,0.0316
17099955,101279.570312,21.350000,3.782917,0.2400,0.1600,9.5900,0.0000,-0.0625,0.0000,0.0000,0.0000,0.0000,16382.0000,164.0000,-213.0000,0.0000,0.0133
17129528,101287.421875,21.350000,3.129207,0.2400,0.1800,9.6000,-0.1250,0.1250,0.0000,0.0000,0.0000,0.0000,16382.0000,164.0000,-213.0000,0.0000,0.0264
17159103,101280.648438,21.350000,3.693449,0.2400,0.1800,9.5900,-0.0625,0.0000,0.0000,0.0000,0.0000,0.0000,16382.0000,164.0000,-213.0000,0.0000,0.0110
17198408,101281.718750,21.360001,3.603982,0.2400,0.1900,9.5800,0.0000,0.0625,0.0000,0.0000,0.0000,0.0000,16382.0000,164.0000,-213.0000,0.0000,0.1101
17228873,101285.648438,21.360001,3.276619,0.2400,0.1900,9.5700,0.0000,-0.1250,-0.0625,0.0000,0.0000,0.0000,16382.0000,164.0000,-213.0000,0.0000,0.0679
17258986,101283.492188,21.350000,3.456565,0.2600,0.1700,9.5700,-0.0625,0.1875,0.0000,0.0000,0.0000,0.0000,16382.0000,164.0000,-213.0000,0.0000,0.1066
17289094,101296.328125,21.350000,2.387606,0.2400,0.1900,9.5700,-0.0625,-0.1250,-0.1250,0.0000,0.0000,0.0000,16382.0000,164.0000,-213.0000,0.0000,0.0391
17320468,101288.492188,21.350000,3.039745,0.2500,0.1800,9.5600,0.0000,0.1250,0.0000,0.0000,0.0000,0.0000,16382.0000,164.0000,-213.0000,0.0000,-0.0191
17350043,101284.570312,21.350000,3.366592,0.2400,0.1800,9.5900,-0.0625,0.2500,0.0000,0.0000,0.0000,0.0000,16382.0000,164.0000,-213.0000,0.0000,-0.0369
17379618,101281.718750,21.360001,3.603982,0.2400,0.1800,9.5800,0.0625,0.0625,0.1250,0.0000,0.0000,0.0000,16382.0000,164.0000,-213.0000,0.0000,-0.0006
17410963,101285.648438,21.360001,3.276619,0.2300,0.1800,9.5700,0.0625,-0.0625,-0.0625,0.0000,0.0000,0.0000,16382.0000,164.0000,-213.0000,0.0000,-0.0672
17440559,101292.406250,21.350000,2.713925,0.2500,0.1900,9.5600,-0.0625,0.0000,0.0000,0.0000,0.0000,0.0000,16382.0000,164.0000,-213.0000,0.0000,-0.1005
17470117,101289.570312,21.360001,2.950283,0.2500,0.1800,9.5800,-0.0625,0.1875,0.0000,0.0000,0.0000,0.0000,16382.0000,164.0000,-213.0000,0.0000,-0.1581
17501461,101282.796875,21.360001,3.514515,0.2200,0.1800,9.6100,0.1250,0.1875,0.0625,0.0000,0.0000,0.0000,16382.0000,164.0000,-213.0000,0.0000,-0.1766
17531065,101288.492188,21.350000,3.039745,0.2400,0.1600,9.5800,-0.0625,0.1250,0.0625,0.0000,0.0000,0.0000,16382.0000,164.0000,-213.0000,0.0000,-0.2050
17560642,101282.796875,21.360001,3.514515,0.2200,0.2000,9.5700,-0.0625,0.0000,0.0000,0.0000,0.0000,0.0000,16382.0000,164.0000,-213.0000,0.0000,-0.2069
17590222,101289.570312,21.360001,2.950283,0.2400,0.1800,9.6000,-0.0625,0.0000,0.0625,0.0000,0.0000,0.0000,16382.0000,164.0000,-213.0000,0.0000,-0.1453
17639783,101289.570312,21.360001,2.950283,0.2400,0.1700,9.5900,0.0000,0.1875,0.0625,0.0000,0.0000,0.0000,16382.0000,164.0000,-213.0000,0.0000,-0.1412
17691235,101281.718750,21.360001,3.603982,0.2400,0.1900,9.5800,0.0625,-0.0625,0.0000,0.0000,0.0000,0.0000,16382.0000,164.0000,-213.0000,0.0000,-0.1037
17720827,101285.648438,21.360001,3.276619,0.2300,0.1600,9.5900,0.0000,0.0625,-0.0625,0.0000,0.0000,0.0000,16382.0000,164.0000,-213.0000,0.0000,-0.1228
17752193,101280.648438,21.350000,3.693449,0.2400,0.1900,9.5900,0.1250,-0.1875,0.0625,0.0000,0.0000,0.0000,16382.0000,164.0000,-213.0000,0.0000,-0.0888
17781795,101285.648438,21.360001,3.276619,0.2600,0.1900,9.5600,0.1250,0.0000,0.0000,0.0000,0.0000,0.0000,16382.0000,164.0000,-213.0000,0.0000,-0.0224
17811422,101290.640625,21.360001,2.860822,0.2600,0.1600,9.5900,0.0625,-0.1250,-0.0625,0.0000,0.0000,0.0000,16382.0000,164.0000,-213.0000,0.0000,-0.0277
17840996,101285.648438,21.360001,3.276619,0.2400,0.1700,9.5800,-0.0625,-0.1250,0.1250,0.0000,0.0000,0.0000,16382.0000,164.0000,-213.0000,0.0000,-0.0581
17870789,101285.648438,21.360001,3.276619,0.2200,0.1900,9.5800,0.0000,0.0000,0.0000,0.0000,0.0000,0.0000,16382.0000,164.0000,-213.0000,0.0000,-0.0278
17900884,101289.570312,21.360001,2.950283,0.2500,0.1900,9.6000,-0.1250,-0.1875,0.0625,0.0000,0.0000,0.0000,16382.0000,164.0000,-213.0000,0.0000,-0.0843
17930985,101285.648438,21.360001,3.276619,0.2300,0.1800,9.5700,-0.1250,-0.0625,0.0000,0.0000,0.0000,0.0000,16382.0000,164.0000,-213.0000,0.0000,-0.0498
17962377,101297.406250,21.360001,2.297642,0.2500,0.1800,9.5500,0.1250,-0.0625,0.0000,0.0000,0.0000,0.0000,16382.0000,164.0000,-213.0000,0.0000,-0.0824
17991922,101283.867188,21.370001,3.425049,0.2400,0.1900,9.5700,0.0000,-0.1250,0.0625,0.0000,0.0000,0.0000,16382.0000,164.0000,-213.0000,0.0000,-0.0961
18021501,101285.648438,21.360001,3.276619,0.2400,0.2000,9.5900,0.0000,0.0625,-0.0625,0.0000,0.0000,0.0000,16382.0000,164.0000,-213.0000,0.0000,-0.0896
18060998,101281.718750,21.360001,3.603982,0.2500,0.1800,9.6000,-0.1250,-0.1875,0.0000,0.0000,0.0000,0.0000,16382.0000,164.0000,-213.0000,0.0000,-0.0985
18091525,101284.570312,21.350000,3.366592,0.2200,0.1800,9.5900,0.0625,0.0625,0.0000,0.0000,0.0000,0.0000,16382.0000,164.0000,-213.0000,0.0000,-0.0978
18121564,101289.570312,21.360001,2.950283,0.2400,0.1800,9.6000,-0.0625,0.0625,0.1250,0.0000,0.0000,0.0000,16382.0000,164.0000,-213.0000,0.0000,-0.0918
18151703,101282.796875,21.360001,3.514515,0.2300,0.1900,9.5900,-0.1250,0.1250,0.0625,0.0000,0.0000,0.0000,16382.0000,164.0000,-213.0000,0.0000,-0.0674
18183016,101279.570312,21.350000,3.782917,0.2400,0.1800,9.5800,0.1250,0.1250,0.0000,0.0000,0.0000,0.0000,16382.0000,164.0000,-213.0000,0.0000,-0.0299
18212617,101281.718750,21.360001,3.603982,0.2300,0.1800,9.5800,-0.1250,0.0000,0.0625,0.0000,0.0000,0.0000,16382.0000,164.0000,-213.0000,0.0000,0.0242
18242180,101288.492188,21.350000,3.039745,0.2400,0.1900,9.5700,-0.1250,-0.1250,0.0625,0.0000,0.0000,0.0000,16382.0000,164.0000,-213.0000,0.0000,0.0023
18273552,101293.492188,21.360001,2.623449,0.2300,0.2000,9.5800,-0.1250,0.1875,-0.0625,0.0000,0.0000,0.0000,16382.0000,164.0000,-213.0000,0.0000,0.0516
18303135,101293.492188,21.360001,2.623449,0.2300,0.1700,9.5900,0.0625,0.1250,-0.1250,0.0000,0.0000,0.0000,16382.0000,164.0000,-213.0000,0.0000,-0.0221
18332707,101284.570312,21.350000,3.366592,0.2500,0.1900,9.5700,0.0000,0.1875,0.0000,0.0000,0.0000,0.0000,16382.0000,164.0000,-213.0000,0.0000,-0.0113
18364080,101288.492188,21.350000,3.039745,0.2400,0.1700,9.5800,0.0000,0.1250,0.0625,0.0000,0.0000,0.0000,16382.0000,164.0000,-213.0000,0.0000,-0.0481
18393704,101281.718750,21.360001,3.603982,0.2400,0.1800,9.5700,-0.0625,0.0625,-0.0625,0.0000,0.0000,0.0000,16382.0000,164.0000,-213.0000,0.0000,-0.0339
18423307,101281.718750,21.360001,3.603982,0.2300,0.1700,9.6000,0.0625,0.0625,0.0625,0.0000,0.0000,0.0000,16382.0000,164.0000,-213.0000,0.0000,0.0315
18452834,101278.882812,21.360001,3.840360,0.2500,0.1900,9.5800,0.0000,0.1250,0.1875,0.0000,0.0000,0.0000,16382.0000,164.0000,-213.0000,0.0000,0.0416
18492145,101293.492188,21.360001,2.623449,0.2500,0.1900,9.5600,-0.0625,-0.1250,0.1250,0.0000,0.0000,0.0000,16382.0000,164.0000,-213.0000,0.0000,-0.0548
18522634,101289.570312,21.360001,2.950283,0.2500,0.1800,9.6000,0.0000,0.2500,-0.1250,0.0000,0.0000,0.0000,16382.0000,164.0000,-213.0000,0.0000,-0.1183
18552933,101281.718750,21.360001,3.603982,0.2500,0.2000,9.5900,0.0000,0.0000,0.0000,0.0000,0.0000,0.0000,16382.0000,164.0000,-213.0000,0.0000,-0.0685
18584278,101281.718750,21.360001,3.603982,0.2500,0.1800,9.5800,-0.0625,0.0625,0.0625,0.0000,0.0000,0.0000,16382.0000,164.0000,-213.0000,0.0000,0.0314
18613859,101284.570312,21.350000,3.366592,0.2300,0.2000,9.5800,0.0625,0.1250,-0.1875,0.0000,0.0000,0.0000,16382.0000,164.0000,-213.0000,0.0000,0.1057
18643458,101284.570312,21.350000,3.366592,0.2300,0.1700,9.6100,-0.0625,-0.0625,-0.0625,0.0000,0.0000,0.0000,16382.0000,164.0000,-213.0000,0.0000,0.1039
18673281,101289.570312,21.360001,2.950283,0.2400,0.1900,9.6000,0.0625,0.1250,0.0000,0.0000,0.0000,0.0000,16382.0000,164.0000,-213.0000,0.0000,0.1116
18704602,101285.648438,21.360001,3.276619,0.2400,0.1700,9.5800,0.0000,0.1250,0.0625,0.0000,0.0000,0.0000,16382.0000,164.0000,-213.0000,0.0000,0.0759
18734183,101277.796875,21.360001,3.930846,0.2600,0.1800,9.5900,0.0625,0.0625,0.1250,0.0000,0.0000,0.0000,16382.0000,164.0000,-213.0000,0.0000,0.1039
18763765,101289.570312,21.360001,2.950283,0.2400,0.1900,9.6000,-0.1875,0.0625,0.0000,0.0000,0.0000,0.0000,16382.0000,164.0000,-213.0000,0.0000,0.0279
18795113,101287.796875,21.370001,3.097692,0.2500,0.1900,9.6000,-0.0625,0.1250,-0.0625,0.0000,0.0000,0.0000,16382.0000,164.0000,-213.0000,0.0000,0.0789
18824689,101279.953125,21.370001,3.750891,0.2500,0.1800,9.5800,-0.0625,0.0625,0.0000,0.0000,0.0000,0.0000,16382.0000,164.0000,-213.0000,0.0000,0.1531
18854289,101282.796875,21.360001,3.514515,0.2300,0.1700,9.5800,-0.0625,0.1250,-0.0625,0.0000,0.0000,0.0000,16382.0000,164.0000,-213.0000,0.0000,0.1216
18883914,101280.648438,21.350000,3.693449,0.2600,0.1600,9.5700,0.0625,0.0000,0.0000,0.0000,0.0000,0.0000,16382.0000,164.0000,-213.0000,0.0000,0.1175
18922717,101290.640625,21.360001,2.860822,0.2200,0.1900,9.5700,-0.0625,-0.1250,0.0625,0.0000,0.0000,0.0000,16382.0000,164.0000,-213.0000,0.0000,0.0770
18953893,101281.718750,21.360001,3.603982,0.2700,0.1800,9.5700,0.0625,0.0000,-0.1250,0.0000,0.0000,0.0000,16382.0000,164.0000,-213.0000,0.0000,0.1008
18984135,101278.882812,21.360001,3.840360,0.2400,0.1900,9.5800,0.0000,0.2500,0.0625,0.0000,0.0000,0.0000,16382.0000,164.0000,-213.0000,0.0000,0.1785
19015515,101289.570312,21.360001,2.950283,0.2400,0.1800,9.5900,-0.0625,0.0000,0.0000,0.0000,0.0000,0.0000,16382.0000,164.0000,-213.0000,0.0000,0.1411
19045087,101281.718750,21.360001,3.603982,0.2400,0.1700,9.5800,-0.0625,0.1250,-0.1250,0.0000,0.0000,0.0000,16382.0000,164.0000,-213.0000,0.0000,0.0954
19074642,101290.640625,21.360001,2.860822,0.2400,0.1800,9.6100,0.0625,0.0000,0.1250,0.0000,0.0000,0.0000,16382.0000,164.0000,-213.0000,0.0000,0.0995
19106038,101285.648438,21.360001,3.276619,0.2700,0.1900,9.5800,0.0625,-0.0625,0.0000,0.0000,0.0000,0.0000,16382.0000,164.0000,-213.0000,0.0000,0.1127
19135578,101291.718750,21.370001,2.771362,0.2300,0.1900,9.6000,0.0000,-0.1250,0.0000,0.0000,0.0000,0.0000,16382.0000,164.0000,-213.0000,0.0000,0.0296
19165167,101281.718750,21.360001,3.603982,0.2200,0.1700,9.5900,0.0625,-0.0625,-0.0625,0.0000,0.0000,0.0000,16382.0000,164.0000,-213.0000,0.0000,0.0254
19194782,101290.640625,21.360001,2.860822,0.2500,0.1800,9.5900,0.0625,-0.0625,0.0625,0.0000,0.0000,0.0000,16382.0000,164.0000,-213.0000,0.0000,-0.0560
19226115,101287.796875,21.370001,3.097692,0.2400,0.1700,9.5800,-0.0625,0.0000,-0.0625,0.0000,0.0000,0.0000,16382.0000,164.0000,-213.0000,0.0000,-0.0222
19255736,101285.648438,21.360001,3.276619,0.2600,0.1800,9.5800,0.0625,-0.1875,0.0000,0.0000,0.0000,0.0000,16382.0000,164.0000,-213.0000,0.0000,-0.0550
19315618,101287.796875,21.370001,3.097692,0.2500,0.1600,9.5900,-0.1250,0.1250,-0.1250,0.0000,0.0000,0.0000,16382.0000,164.0000,-213.0000,0.0000,-0.1173
19354757,101281.718750,21.360001,3.603982,0.2600,0.1600,9.5800,-0.0625,0.0625,0.0625,0.0000,0.0000,0.0000,16382.0000,164.0000,-213.0000,0.0000,-0.0585
19385218,101281.718750,21.360001,3.603982,0.2400,0.1700,9.5800,-0.0625,0.2500,-0.0625,0.0000,0.0000,0.0000,16382.0000,164.0000,-213.0000,0.0000,-0.0734
19415349,101285.648438,21.360001,3.276619,0.2600,0.1700,9.5700,-0.0625,0.0625,0.0625,0.0000,0.0000,0.0000,16382.0000,164.0000,-213.0000,0.0000,-0.0318
19445359,101282.796875,21.360001,3.514515,0.2500,0.1900,9.5600,0.0000,-0.1250,-0.0625,0.0000,0.0000,0.0000,16382.0000,164.0000,-213.0000,0.0000,-0.0127
19475349,101282.796875,21.360001,3.514515,0.2300,0.1800,9.5800,0.0625,0.0625,-0.1250,0.0000,0.0000,0.0000,16382.0000,164.0000,-213.0000,0.0000,0.0503
19505675,101285.648438,21.360001,3.276619,0.2300,0.1700,9.5500,0.0000,0.1250,-0.1250,0.0000,0.0000,0.0000,16382.0000,164.0000,-213.0000,0.0000,0.0176
19535718,101282.796875,21.360001,3.514515,0.2300,0.1800,9.6000,0.0625,-0.0625,0.0625,0.0000,0.0000,0.0000,16382.0000,164.0000,-213.0000,0.0000,0.0586
19567074,101281.718750,21.360001,3.603982,0.2700,0.1800,9.5800,-0.1250,0.0625,0.0625,0.0000,0.0000,0.0000,16382.0000,164.0000,-213.0000,0.0000,0.1056
19596688,101276.031250,21.370001,4.077761,0.2200,0.1900,9.5600,0.0000,0.0000,0.0000,0.0000,0.0000,0.0000,16382.0000,164.0000,-213.0000,0.0000,0.1697
19626278,101291.718750,21.370001,2.771362,0.2400,0.2000,9.5700,-0.0625,0.2500,-0.0625,0.0000,0.0000,0.0000,16382.0000,164.0000,-213.0000,0.0000,0.1537
19657625,101284.953125,21.370001,3.334568,0.2400,0.1700,9.5800,-0.0625,0.0625,-0.0625,0.0000,0.0000,0.0000,16382.0000,164.0000,-213.0000,0.0000,0.1274
19687207,101283.867188,21.370001,3.425049,0.2600,0.1900,9.6000,-0.0625,0.0000,-0.0625,0.0000,0.0000,0.0000,16382.0000,164.0000,-213.0000,0.0000,0.1001
19716827,101281.718750,21.360001,3.603982,0.2300,0.2000,9.5700,0.0000,-0.0625,0.0000,0.0000,0.0000,0.0000,16382.0000,164.0000,-213.0000,0.0000,0.1310
19746399,101285.648438,21.360001,3.276619,0.2400,0.1800,9.5700,0.0000,-0.1250,-0.0625,0.0000,0.0000,0.0000,16382.0000,164.0000,-213.0000,0.0000,0.1173
19785901,101283.867188,21.370001,3.425049,0.2600,0.1800,9.6000,-0.0625,-0.0625,0.0000,0.0000,0.0000,0.0000,16382.0000,164.0000,-213.0000,0.0000,0.1120
19816345,101282.796875,21.360001,3.514515,0.2400,0.1700,9.5600,-0.0625,0.0000,0.0625,0.0000,0.0000,0.0000,16382.0000,164.0000,-213.0000,0.0000,0.1263
19846454,101281.718750,21.360001,3.603982,0.2300,0.1700,9.5800,0.0000,0.1875,-0.1250,0.0000,0.0000,0.0000,16382.0000,164.0000,-213.0000,0.0000,0.1156
19877849,101279.953125,21.370001,3.750891,0.2400,0.1800,9.6000,0.0000,-0.1250,0.0625,0.0000,0.0000,0.0000,16382.0000,164.0000,-213.0000,0.0000,0.1077
19907389,101290.640625,21.360001,2.860822,0.2600,0.1700,9.5700,-0.1250,0.0000,0.0000,0.0000,0.0000,0.0000,16382.0000,164.0000,-213.0000,0.0000,-0.0038
19936977,101277.796875,21.360001,3.930846,0.2300,0.1800,9.6000,-0.1875,0.1875,0.0000,0.0000,0.0000,0.0000,16382.0000,164.0000,-213.0000,0.0000,0.0943
19966923,101287.796875,21.370001,3.097692,0.2400,0.1700,9.5800,-0.1250,-0.1875,0.0000,0.0000,0.0000,0.0000,16382.0000,164.0000,-213.0000,0.0000,0.0807
19998266,101283.867188,21.370001,3.425049,0.2300,0.1800,9.5800,0.0000,-0.0625,-0.0625,0.0000,0.0000,0.0000,16382.0000,164.0000,-213.0000,0.0000,0.0843
20027840,101274.960938,21.360001,4.166724,0.2400,0.1800,9.5900,-0.1875,0.0625,0.0625,0.0000,0.0000,0.0000,16382.0000,164.0000,-213.0000,0.0000,0.1341
20057480,101287.796875,21.370001,3.097692,0.2300,0.1800,9.6000,-0.0625,0.1875,0.0000,0.0000,0.0000,0.0000,16382.0000,164.0000,-213.0000,0.0000,0.1067
20088809,101283.867188,21.370001,3.425049,0.2400,0.1900,9.5700,0.0000,-0.0625,-0.0625,0.0000,0.0000,0.0000,16382.0000,164.0000,-213.0000,0.0000,0.0972
20118304,101278.882812,21.360001,3.840360,0.2500,0.1900,9.5800,0.0625,-0.0625,0.0625,0.0000,0.0000,0.0000,16382.0000,164.0000,-213.0000,0.0000,0.1250
20147867,101285.648438,21.360001,3.276619,0.2500,0.1900,9.5500,-0.0625,0.1250,-0.0625,0.0000,0.0000,0.0000,16382.0000,164.0000,-213.0000,0.0000,0.0989
20187006,101282.796875,21.360001,3.514515,0.2600,0.1900,9.5800,0.0625,0.0625,0.0625,0.0000,0.0000,0.0000,16382.0000,164.0000,-213.0000,0.0000,0.0723
20217509,101290.640625,21.360001,2.860822,0.2300,0.1800,9.5800,0.0625,0.1250,-0.0625,0.0000,0.0000,0.0000,16382.0000,164.0000,-213.0000,0.0000,0.0824
20247618,101281.718750,21.360001,3.603982,0.2300,0.1900,9.5800,0.1250,-0.0625,-0.0625,0.0000,0.0000,0.0000,16382.0000,164.0000,-213.0000,0.0000,0.0366
20277710,101290.640625,21.360001,2.860822,0.2300,0.1700,9.5700,0.1250,-0.2500,0.0000,0.0000,0.0000,0.0000,16382.0000,164.0000,-213.0000,0.0000,0.0212
20309082,101286.718750,21.360001,3.187663,0.2400,0.1600,9.5900,0.0625,0.0625,-0.0625,0.0000,0.0000,0.0000,16382.0000,164.0000,-213.0000,0.0000,0.0124
20338636,101283.867188,21.370001,3.425049,0.2300,0.1900,9.5500,-0.1250,-0.1250,0.0000,0.0000,0.0000,0.0000,16382.0000,164.0000,-213.0000,0.0000,-0.0713
20368218,101277.796875,21.360001,3.930846,0.2300,0.2000,9.6000,0.0625,-0.2500,-0.0625,0.0000,0.0000,0.0000,16382.0000,164.0000,-213.0000,0.0000,-0.0046
20399563,101290.640625,21.360001,2.860822,0.2400,0.1800,9.5800,0.0625,0.1250,-0.1250,0.0000,0.0000,0.0000,16382.0000,164.0000,-213.0000,0.0000,-0.0433
20429154,101283.867188,21.370001,3.425049,0.2600,0.1600,9.5500,0.0625,-0.0625,0.0000,0.0000,0.0000,0.0000,16382.0000,164.0000,-213.0000,0.0000,-0.0830
20458762,101287.796875,21.370001,3.097692,0.2300,0.1900,9.5600,-0.0625,0.0625,0.0000,0.0000,0.0000,0.0000,16382.0000,164.0000,-213.0000,0.0000,-0.0890
20488464,101286.718750,21.360001,3.187663,0.2300,0.1900,9.5800,0.0000,0.0000,0.0000,0.0000,0.0000,0.0000,16382.0000,164.0000,-213.0000,0.0000,-0.1282
20519836,101281.718750,21.360001,3.603982,0.2500,0.1800,9.5800,0.1250,-0.1250,0.0000,0.0000,0.0000,0.0000,16382.0000,164.0000,-213.0000,0.0000,-0.0539
20549407,101283.867188,21.370001,3.425049,0.2500,0.1700,9.5800,0.0625,0.0625,0.0000,0.0000,0.0000,0.0000,16382.0000,164.0000,-213.0000,0.0000,-0.0635
20579013,101293.867188,21.379999,2.592444,0.2300,0.1800,9.5700,0.1250,0.1250,0.0000,0.0000,0.0000,0.0000,16382.0000,164.0000,-213.0000,0.0000,-0.0832
20618292,101291.718750,21.370001,2.771362,0.2200,0.2000,9.5900,-0.0625,-0.0625,0.0000,0.0000,0.0000,0.0000,16382.0000,164.0000,-213.0000,0.0000,-0.1081
20648764,101276.031250,21.370001,4.077761,0.2500,0.1500,9.5800,0.0625,-0.1250,0.0000,0.0000,0.0000,0.0000,16382.0000,164.0000,-213.0000,0.0000,-0.0672
20678912,101285.648438,21.360001,3.276619,0.2300,0.1700,9.5800,0.0625,0.0000,0.0625,0.0000,0.0000,0.0000,16382.0000,164.0000,-213.0000,0.0000,-0.1326
20710289,101282.796875,21.360001,3.514515,0.2500,0.1800,9.5700,-0.0625,0.0625,0.0000,0.0000,0.0000,0.0000,16382.0000,164.0000,-213.0000,0.0000,-0.0821
20739835,101284.570312,21.350000,3.366592,0.2500,0.1800,9.5600,0.1875,0.1250,-0.0625,0.0000,0.0000,0.0000,16382.0000,164.0000,-213.0000,0.0000,-0.0832
20769410,101290.640625,21.360001,2.860822,0.2400,0.1700,9.5700,-0.0625,-0.1250,0.1250,0.0000,0.0000,0.0000,16382.0000,164.0000,-213.0000,0.0000,-0.1069
20799313,101291.718750,21.370001,2.771362,0.2400,0.1900,9.5800,0.0000,-0.1875,0.0000,0.0000,0.0000,0.0000,16382.0000,164.0000,-213.0000,0.0000,-0.1420
20830685,101287.796875,21.370001,3.097692,0.2300,0.1800,9.5800,0.0000,-0.1250,-0.0625,0.0000,0.0000,0.0000,16382.0000,164.0000,-213.0000,0.0000,-0.1891
20869315,101281.718750,21.360001,3.603982,0.2500,0.1700,9.5600,0.1875,0.0000,0.0625,0.0000,0.0000,0.0000,16382.0000,164.0000,-213.0000,0.0000,-0.1813
20919970,101281.718750,21.360001,3.603982,0.2400,0.1900,9.5900,0.0625,-0.1875,0.0625,0.0000,0.0000,0.0000,16382.0000,164.0000,-213.0000,0.0000,-0.0801
20951340,101282.796875,21.360001,3.514515,0.2300,0.1800,9.5800,-0.0625,0.0000,0.0625,0.0000,0.0000,0.0000,16382.0000,164.0000,-213.0000,0.0000,-0.0040
20980920,101283.867188,21.370001,3.425049,0.2200,0.1900,9.5800,0.0625,-0.0625,-0.1250,0.0000,0.0000,0.0000,16382.0000,164.0000,-213.0000,0.0000,-0.0723
21010497,101277.796875,21.360001,3.930846,0.2500,0.1700,9.5900,0.0625,-0.1875,0.0000,0.0000,0.0000,0.0000,16382.0000,164.0000,-213.0000,0.0000,-0.0152
21049656,101290.640625,21.360001,2.860822,0.2500,0.1800,9.5800,-0.0625,-0.1250,0.0625,0.0000,0.0000,0.0000,16382.0000,164.0000,-213.0000,0.0000,-0.0675
21079996,101278.882812,21.360001,3.840360,0.2300,0.1800,9.5900,0.0625,0.0000,-0.0625,0.0000,0.0000,0.0000,16382.0000,164.0000,-213.0000,0.0000,-0.0314
21110065,101282.796875,21.360001,3.514515,0.2400,0.1700,9.5900,0.0625,-0.1250,-0.0625,0.0000,0.0000,0.0000,16382.0000,164.0000,-213.0000,0.0000,0.0340
21140170,101291.718750,21.370001,2.771362,0.2500,0.1700,9.5900,-0.0625,-0.0625,0.0000,0.0000,0.0000,0.0000,16382.0000,164.0000,-213.0000,0.0000,0.0506
21171514,101283.867188,21.370001,3.425049,0.2300,0.1800,9.5900,0.0000,0.1875,0.0625,0.0000,0.0000,0.0000,16382.0000,164.0000,-213.0000,0.0000,0.0964
21201142,101291.718750,21.370001,2.771362,0.2300,0.1800,9.5800,0.0000,0.0000,0.0000,0.0000,0.0000,0.0000,16382.0000,164.0000,-213.0000,0.0000,0.0132
21230717,101285.648438,21.360001,3.276619,0.2400,0.1700,9.6100,0.0000,0.0625,0.0625,0.0000,0.0000,0.0000,16382.0000,164.0000,-213.0000,0.0000,-0.0184
21262066,101283.867188,21.370001,3.425049,0.2300,0.1900,9.6000,0.0000,0.0625,-0.0625,0.0000,0.0000,0.0000,16382.0000,164.0000,-213.0000,0.0000,-0.0273
21291665,101291.718750,21.370001,2.771362,0.2300,0.1700,9.5900,0.0000,0.0625,0.0625,0.0000,0.0000,0.0000,16382.0000,164.0000,-213.0000,0.0000,-0.0761
21321228,101283.867188,21.370001,3.425049,0.2500,0.1800,9.5800,0.1250,0.1875,0.0000,0.0000,0.0000,0.0000,16382.0000,164.0000,-213.0000,0.0000,-0.1296
21350951,101290.640625,21.360001,2.860822,0.2600,0.1700,9.5900,0.0625,-0.1875,0.0000,0.0000,0.0000,0.0000,16382.0000,164.0000,-213.0000,0.0000,-0.1183
21382236,101287.796875,21.370001,3.097692,0.2500,0.1800,9.5700,0.0625,0.1250,0.0000,0.0000,0.0000,0.0000,16382.0000,164.0000,-213.0000,0.0000,-0.1843
21411827,101282.796875,21.360001,3.514515,0.2500,0.1900,9.5900,0.1250,-0.1250,0.0625,0.0000,0.0000,0.0000,16382.0000,164.0000,-213.0000,0.0000,-0.1825
21441419,101279.953125,21.370001,3.750891,0.2500,0.1700,9.5800,0.0625,-0.0625,0.0000,0.0000,0.0000,0.0000,16382.0000,164.0000,-213.0000,0.0000,-0.0845
21480746,101281.718750,21.360001,3.603982,0.2400,0.1800,9.5700,0.0625,-0.0625,-0.0625,0.0000,0.0000,0.0000,16382.0000,164.0000,-213.0000,0.0000,-0.0815
21511210,101283.867188,21.370001,3.425049,0.2200,0.2100,9.5700,0.0000,0.1250,0.0000,0.0000,0.0000,0.0000,16382.0000,164.0000,-213.0000,0.0000,-0.0060
21541328,101292.789062,21.370001,2.681902,0.2500,0.1700,9.5800,0.0000,0.1250,-0.0625,0.0000,0.0000,0.0000,16382.0000,164.0000,-213.0000,0.0000,-0.0572
21572721,101283.867188,21.370001,3.425049,0.2600,0.1600,9.5700,0.0625,0.0000,0.0000,0.0000,0.0000,0.0000,16382.0000,164.0000,-213.0000,0.0000,-0.0572
21602279,101292.789062,21.370001,2.681902,0.2400,0.1800,9.6000,0.0000,-0.1250,0.0000,0.0000,0.0000,0.0000,16382.0000,164.0000,-213.0000,0.0000,-0.0364
21631857,101279.953125,21.370001,3.750891,0.2300,0.1900,9.5600,0.1250,0.0625,-0.1875,0.0000,0.0000,0.0000,16382.0000,164.0000,-213.0000,0.0000,-0.0169
21661755,101284.953125,21.370001,3.334568,0.2400,0.1800,9.5900,0.0000,0.0000,0.0625,0.0000,0.0000,0.0000,16382.0000,164.0000,-213.0000,0.0000,0.0323
21693140,101282.796875,21.360001,3.514515,0.2400,0.1800,9.5800,0.1250,-0.0625,0.0000,0.0000,0.0000,0.0000,16382.0000,164.0000,-213.0000,0.0000,0.0805
21722706,101279.953125,21.370001,3.750891,0.2200,0.1800,9.6100,0.0000,0.0000,0.0000,0.0000,0.0000,0.0000,16382.0000,164.0000,-213.0000,0.0000,0.0946
21752284,101291.718750,21.370001,2.771362,0.2300,0.1800,9.5800,0.0000,0.2500,-0.1875,0.0000,0.0000,0.0000,16382.0000,164.0000,-213.0000,0.0000,0.0116
21783634,101279.953125,21.370001,3.750891,0.2400,0.1700,9.5900,-0.1250,0.0625,-0.1250,0.0000,0.0000,0.0000,16382.0000,164.0000,-213.0000,0.0000,0.0084
21813198,101281.718750,21.360001,3.603982,0.2400,0.1700,9.6000,-0.1250,0.0000,0.0625,0.0000,0.0000,0.0000,16382.0000,164.0000,-213.0000,0.0000,0.0263
21842781,101288.867188,21.370001,3.008738,0.2400,0.1700,9.5700,-0.1875,0.3125,-0.0625,0.0000,0.0000,0.0000,16382.0000,164.0000,-213.0000,0.0000,0.0561
21872434,101276.031250,21.370001,4.077761,0.2400,0.1800,9.5700,-0.1250,-0.0625,0.0625,0.0000,0.0000,0.0000,16382.0000,164.0000,-213.0000,0.0000,0.1035
21911926,101287.796875,21.370001,3.097692,0.2400,0.1800,9.6000,0.0000,0.3125,-0.0625,0.0000,0.0000,0.0000,16382.0000,164.0000,-213.0000,0.0000,0.1517
21942407,101277.796875,21.360001,3.930846,0.2600,0.1700,9.6000,0.0000,0.3125,0.0000,0.0000,0.0000,0.0000,16382.0000,164.0000,-213.0000,0.0000,0.1697
21972495,101282.796875,21.360001,3.514515,0.2400,0.1600,9.5900,0.0000,-0.0625,0.0625,0.0000,0.0000,0.0000,16382.0000,164.0000,-213.0000,0.0000,0.1746
22003860,101287.796875,21.370001,3.097692,0.2300,0.1800,9.5800,0.0000,0.0000,0.1250,0.0000,0.0000,0.0000,16382.0000,164.0000,-213.0000,0.0000,0.1394
22033431,101281.718750,21.360001,3.603982,0.2100,0.2000,9.5700,-0.0625,0.0000,0.0000,0.0000,0.0000,0.0000,16382.0000,164.0000,-213.0000,0.0000,0.1146
22063013,101291.718750,21.370001,2.771362,0.2600,0.1500,9.5800,0.0625,0.0625,0.0625,0.0000,0.0000,0.0000,16382.0000,164.0000,-213.0000,0.0000,0.1230
22092935,101285.648438,21.360001,3.276619,0.2600,0.1500,9.5600,0.0625,0.1250,0.0625,0.0000,0.0000,0.0000,16382.0000,164.0000,-213.0000,0.0000,0.0821
22124314,101283.867188,21.370001,3.425049,0.2400,0.2000,9.6000,0.0000,-0.1250,0.0000,0.0000,0.0000,0.0000,16382.0000,164.0000,-213.0000,0.0000,0.0642
22153850,101289.570312,21.360001,2.950283,0.2200,0.1800,9.5700,0.0000,0.0000,-0.0625,0.0000,0.0000,0.0000,16382.0000,164.0000,-213.0000,0.0000,0.0512
22183416,101282.796875,21.360001,3.514515,0.2800,0.1700,9.5800,-0.0625,0.1250,-0.0625,0.0000,0.0000,0.0000,16382.0000,164.0000,-213.0000,0.0000,-0.0200
22214782,101283.867188,21.370001,3.425049,0.2600,0.1600,9.5800,-0.1250,0.0000,-0.1250,0.0000,0.0000,0.0000,16382.0000,164.0000,-213.0000,0.0000,0.0258
22244411,101281.718750,21.360001,3.603982,0.2200,0.2000,9.5900,-0.1250,-0.0625,0.0000,0.0000,0.0000,0.0000,16382.0000,164.0000,-213.0000,0.0000,-0.0135
22274018,101286.718750,21.360001,3.187663,0.2300,0.1800,9.5800,0.0625,-0.0625,0.1875,0.0000,0.0000,0.0000,16382.0000,164.0000,-213.0000,0.0000,-0.0396
22313162,101288.867188,21.370001,3.008738,0.2800,0.1700,9.5900,-0.0625,-0.1250,0.0625,0.0000,0.0000,0.0000,16382.0000,164.0000,-213.0000,0.0000,-0.0413
22343663,101281.718750,21.360001,3.603982,0.2300,0.1800,9.5800,0.0625,0.1250,0.0625,0.0000,0.0000,0.0000,16382.0000,164.0000,-213.0000,0.0000,-0.0562
22373791,101291.718750,21.370001,2.771362,0.2300,0.1800,9.5800,0.0000,-0.1875,0.0000,0.0000,0.0000,0.0000,16382.0000,164.0000,-213.0000,0.0000,-0.0562
22403935,101287.796875,21.370001,3.097692,0.2400,0.1900,9.5600,0.1875,0.0625,0.0625,0.0000,0.0000,0.0000,16382.0000,164.0000,-213.0000,0.0000,-0.0741
22444039,101283.867188,21.370001,3.425049,0.2500,0.1700,9.6000,-0.0625,0.0625,0.0000,0.0000,0.0000,0.0000,16382.0000,164.0000,-213.0000,0.0000,-0.0705
22495985,101282.796875,21.360001,3.514515,0.2300,0.1900,9.6000,-0.0625,-0.1250,0.0000,0.0000,0.0000,0.0000,16382.0000,164.0000,-213.0000,0.0000,-0.0123
22525413,101283.867188,21.370001,3.425049,0.2400,0.1800,9.6100,-0.0625,0.0625,-0.1250,0.0000,0.0000,0.0000,16382.0000,164.0000,-213.0000,0.0000,-0.0195
22556642,101282.796875,21.360001,3.514515,0.2400,0.1800,9.5700,-0.0625,0.0000,0.0000,0.0000,0.0000,0.0000,16382.0000,164.0000,-213.0000,0.0000,-0.0123
22586226,101284.953125,21.370001,3.334568,0.2400,0.1700,9.5800,0.0625,-0.1875,0.0000,0.0000,0.0000,0.0000,16382.0000,164.0000,-213.0000,0.0000,-0.0273
22615836,101283.867188,21.370001,3.425049,0.2600,0.1700,9.5800,0.0000,0.1875,-0.0625,0.0000,0.0000,0.0000,16382.0000,164.0000,-213.0000,0.0000,-0.0149
22645391,101291.718750,21.370001,2.771362,0.2400,0.1800,9.6000,0.0000,0.1250,-0.0625,0.0000,0.0000,0.0000,16382.0000,164.0000,-213.0000,0.0000,-0.0172
22674719,101283.867188,21.370001,3.425049,0.2400,0.1800,9.5800,0.0000,-0.0625,0.0000,0.0000,0.0000,0.0000,16382.0000,164.0000,-213.0000,0.0000,-0.0333
22704693,101283.867188,21.370001,3.425049,0.2600,0.1700,9.6000,0.0625,-0.0625,0.1250,0.0000,0.0000,0.0000,16382.0000,164.0000,-213.0000,0.0000,0.0190
22734787,101279.953125,21.370001,3.750891,0.2400,0.1900,9.5800,-0.1250,0.1250,-0.0625,0.0000,0.0000,0.0000,16382.0000,164.0000,-213.0000,0.0000,0.0778
22774311,101286.718750,21.360001,3.187663,0.2300,0.1700,9.6100,-0.0625,0.1875,-0.0625,0.0000,0.0000,0.0000,16382.0000,164.0000,-213.0000,0.0000,0.0457
22804833,101283.867188,21.370001,3.425049,0.2400,0.1700,9.5800,0.1875,-0.0625,-0.0625,0.0000,0.0000,0.0000,16382.0000,164.0000,-213.0000,0.0000,0.0338
22835117,101288.867188,21.370001,3.008738,0.2600,0.1900,9.5700,-0.0625,0.1875,0.0000,0.0000,0.0000,0.0000,16382.0000,164.0000,-213.0000,0.0000,0.0005
22866524,101286.718750,21.360001,3.187663,0.2400,0.2000,9.6000,0.0625,0.1250,-0.1250,0.0000,0.0000,0.0000,16382.0000,164.0000,-213.0000,0.0000,-0.0405
22896096,101283.867188,21.370001,3.425049,0.2400,0.1700,9.5900,0.0000,0.1250,0.0000,0.0000,0.0000,0.0000,16382.0000,164.0000,-213.0000,0.0000,-0.0315
22925639,101283.867188,21.370001,3.425049,0.2500,0.1800,9.6000,-0.0625,0.0625,-0.0625,0.0000,0.0000,0.0000,16382.0000,164.0000,-213.0000,0.0000,-0.0428
22955517,101277.796875,21.360001,3.930846,0.2400,0.1900,9.5700,-0.0625,-0.0625,0.0000,0.0000,0.0000,0.0000,16382.0000,164.0000,-213.0000,0.0000,0.0565
22986867,101283.867188,21.370001,3.425049,0.2300,0.1800,9.5700,0.0000,0.1875,-0.0625,0.0000,0.0000,0.0000,16382.0000,164.0000,-213.0000,0.0000,0.0583
23016504,101277.109375,21.370001,3.987782,0.2700,0.1800,9.6000,0.0000,0.2500,0.0000,0.0000,0.0000,0.0000,16382.0000,164.0000,-213.0000,0.0000,0.1098
23046028,101274.960938,21.360001,4.166724,0.2500,0.1900,9.6100,0.0625,-0.1250,0.0625,0.0000,0.0000,0.0000,16382.0000,164.0000,-213.0000,0.0000,0.1402
23077364,101282.796875,21.360001,3.514515,0.2400,0.1900,9.5900,0.0000,0.0625,0.0000,0.0000,0.0000,0.0000,16382.0000,164.0000,-213.0000,0.0000,0.1711
23106971,101276.031250,21.370001,4.077761,0.2300,0.1600,9.6100,0.0000,0.0000,0.0625,0.0000,0.0000,0.0000,16382.0000,164.0000,-213.0000,0.0000,0.2084
23136493,101277.109375,21.370001,3.987782,0.2300,0.1900,9.5900,-0.0625,0.0625,-0.0625,0.0000,0.0000,0.0000,16382.0000,164.0000,-213.0000,0.0000,0.2951
23166123,101283.867188,21.370001,3.425049,0.2400,0.2000,9.6000,-0.1875,0.0625,0.0000,0.0000,0.0000,0.0000,16382.0000,164.0000,-213.0000,0.0000,0.3040
23205598,101283.867188,21.370001,3.425049,0.2200,0.1700,9.6000,-0.0625,0.0625,-0.1250,0.0000,0.0000,0.0000,16382.0000,164.0000,-213.0000,0.0000,0.3105
23236077,101281.031250,21.370001,3.661424,0.2600,0.2000,9.6000,-0.0625,0.0000,-0.1250,0.0000,0.0000,0.0000,16382.0000,164.0000,-213.0000,0.0000,0.3276
23266305,101278.882812,21.360001,3.840360,0.2500,0.1600,9.5900,-0.1250,-0.1250,0.0000,0.0000,0.0000,0.0000,16382.0000,164.0000,-213.0000,0.0000,0.3120
23297627,101291.718750,21.370001,2.771362,0.2500,0.1500,9.5800,0.0000,0.0625,0.0000,0.0000,0.0000,0.0000,16382.0000,164.0000,-213.0000,0.0000,0.2662
23327152,101283.867188,21.370001,3.425049,0.2300,0.2000,9.5800,-0.0625,0.1250,0.1875,0.0000,0.0000,0.0000,16382.0000,164.0000,-213.0000,0.0000,0.1969
23356751,101281.718750,21.360001,3.603982,0.2700,0.2000,9.5800,0.0625,0.1250,0.0625,0.0000,0.0000,0.0000,16382.0000,164.0000,-213.0000,0.0000,0.1435
23388097,101282.796875,21.360001,3.514515,0.2400,0.1600,9.5800,0.0000,0.0625,0.0000,0.0000,0.0000,0.0000,16382.0000,164.0000,-213.0000,0.0000,0.1453
23417751,101279.953125,21.370001,3.750891,0.2400,0.1600,9.5600,0.0000,0.1875,0.0625,0.0000,0.0000,0.0000,16382.0000,164.0000,-213.0000,0.0000,0.0978
23447300,101287.796875,21.370001,3.097692,0.2500,0.1900,9.5900,-0.0625,0.1250,0.0625,0.0000,0.0000,0.0000,16382.0000,164.0000,-213.0000,0.0000,0.0284
23476985,101286.718750,21.360001,3.187663,0.2500,0.2000,9.5700,0.0000,0.0625,0.0000,0.0000,0.0000,0.0000,16382.0000,164.0000,-213.0000,0.0000,0.0029
23508325,101289.953125,21.379999,2.918260,0.2400,0.1800,9.5800,-0.0625,-0.0625,0.0625,0.0000,0.0000,0.0000,16382.0000,164.0000,-213.0000,0.0000,-0.0276
23537896,101274.960938,21.360001,4.166724,0.2500,0.1600,9.5500,-0.1250,0.0000,0.0000,0.0000,0.0000,0.0000,16382.0000,164.0000,-213.0000,0.0000,0.0099
23567508,101286.023438,21.379999,3.245611,0.2400,0.1800,9.5700,-0.1875,0.1875,0.0625,0.0000,0.0000,0.0000,16382.0000,164.0000,-213.0000,0.0000,-0.0525
23606882,101291.718750,21.370001,2.771362,0.2500,0.2000,9.5800,0.0000,-0.0625,0.0625,0.0000,0.0000,0.0000,16382.0000,164.0000,-213.0000,0.0000,-0.0359
23637358,101283.867188,21.370001,3.425049,0.2400,0.1700,9.5900,-0.0625,-0.2500,-0.0625,0.0000,0.0000,0.0000,16382.0000,164.0000,-213.0000,0.0000,-0.0489
23667425,101286.023438,21.379999,3.245611,0.2400,0.1600,9.5800,0.0000,0.0625,0.0000,0.0000,0.0000,0.0000,16382.0000,164.0000,-213.0000,0.0000,-0.0842
23697533,101287.796875,21.370001,3.097692,0.2200,0.1900,9.5900,0.0000,0.0000,-0.0625,0.0000,0.0000,0.0000,16382.0000,164.0000,-213.0000,0.0000,-0.1193
23728883,101283.867188,21.370001,3.425049,0.2300,0.2100,9.5600,-0.0625,-0.2500,-0.0625,0.0000,0.0000,0.0000,16382.0000,164.0000,-213.0000,0.0000,-0.1614
23758481,101282.796875,21.360001,3.514515,0.2600,0.1900,9.6000,0.0625,-0.1250,0.0625,0.0000,0.0000,0.0000,16382.0000,164.0000,-213.0000,0.0000,-0.1197
23788076,101283.867188,21.370001,3.425049,0.2400,0.1400,9.6000,0.0000,-0.0625,-0.1250,0.0000,0.0000,0.0000,16382.0000,164.0000,-213.0000,0.0000,-0.0960
23819433,101283.867188,21.370001,3.425049,0.2300,0.1400,9.5700,-0.1250,0.0000,0.0000,0.0000,0.0000,0.0000,16382.0000,164.0000,-213.0000,0.0000,-0.0417
23849008,101284.953125,21.370001,3.334568,0.2500,0.2000,9.5900,0.0000,-0.0625,0.0000,0.0000,0.0000,0.0000,16382.0000,164.0000,-213.0000,0.0000,-0.1278
23878638,101283.867188,21.370001,3.425049,0.2400,0.2000,9.5900,0.0625,-0.0625,0.0625,0.0000,0.0000,0.0000,16382.0000,164.0000,-213.0000,0.0000,-0.1182
23909940,101283.867188,21.370001,3.425049,0.2300,0.1800,9.6100,0.0625,0.0625,0.1250,0.0000,0.0000,0.0000,16382.0000,164.0000,-213.0000,0.0000,-0.0493
23939537,101291.718750,21.370001,2.771362,0.2300,0.1800,9.6000,0.0625,0.0625,0.0000,0.0000,0.0000,0.0000,16382.0000,164.0000,-213.0000,0.0000,-0.1146
23969187,101284.953125,21.370001,3.334568,0.2500,0.2000,9.5800,0.0000,-0.1875,0.1250,0.0000,0.0000,0.0000,16382.0000,164.0000,-213.0000,0.0000,-0.1105
23998723,101274.960938,21.360001,4.166724,0.2500,0.1800,9.5900,0.0000,0.0625,0.0000,0.0000,0.0000,0.0000,16382.0000,164.0000,-213.0000,0.0000,-0.0184
24068012,101292.789062,21.370001,2.681902,0.2400,0.1800,9.5700,0.0625,0.0000,-0.0625,0.0000,0.0000,0.0000,16382.0000,164.0000,-213.0000,0.0000,-0.0761
24098742,101286.023438,21.379999,3.245611,0.2300,0.1900,9.5800,0.1250,0.0000,-0.1250,0.0000,0.0000,0.0000,16382.0000,164.0000,-213.0000,0.0000,-0.0994
24128883,101286.023438,21.379999,3.245611,0.2400,0.1900,9.5900,0.0625,0.0625,0.0000,0.0000,0.0000,0.0000,16382.0000,164.0000,-213.0000,0.0000,-0.1120
24160266,101289.953125,21.379999,2.918260,0.2500,0.1700,9.5800,0.0000,-0.0625,0.0000,0.0000,0.0000,0.0000,16382.0000,164.0000,-213.0000,0.0000,-0.1543
24189894,101288.867188,21.370001,3.008738,0.2300,0.1700,9.5700,0.1250,0.0000,-0.1875,0.0000,0.0000,0.0000,16382.0000,164.0000,-213.0000,0.0000,-0.1786
24219429,101272.109375,21.370001,4.404640,0.2500,0.1700,9.5700,-0.1875,-0.0625,0.0000,0.0000,0.0000,0.0000,16382.0000,164.0000,-213.0000,0.0000,-0.1133
24249227,101284.953125,21.370001,3.334568,0.2400,0.1900,9.5700,0.0000,0.2500,-0.0625,0.0000,0.0000,0.0000,16382.0000,164.0000,-213.0000,0.0000,-0.1205
24280603,101286.023438,21.379999,3.245611,0.2200,0.1800,9.5800,-0.0625,-0.1250,-0.1875,0.0000,0.0000,0.0000,16382.0000,164.0000,-213.0000,0.0000,-0.0695
24310207,101281.031250,21.370001,3.661424,0.2300,0.1800,9.5700,0.0000,0.0000,-0.0625,0.0000,0.0000,0.0000,16382.0000,164.0000,-213.0000,0.0000,-0.0350
24339797,101281.718750,21.360001,3.603982,0.2300,0.1900,9.5800,0.0000,-0.1250,0.0000,0.0000,0.0000,0.0000,16382.0000,164.0000,-213.0000,0.0000,-0.0996
24371163,101282.101562,21.379999,3.571957,0.2300,0.2000,9.5900,0.0000,-0.1250,-0.0625,0.0000,0.0000,0.0000,16382.0000,164.0000,-213.0000,0.0000,-0.0136
24400790,101288.867188,21.370001,3.008738,0.2500,0.1800,9.5700,0.0625,0.0000,0.0625,0.0000,0.0000,0.0000,16382.0000,164.0000,-213.0000,0.0000,-0.0372
24430363,101296.007812,21.389999,2.414037,0.2400,0.1800,9.5900,0.0625,-0.0625,0.0000,0.0000,0.0000,0.0000,16382.0000,164.0000,-213.0000,0.0000,-0.1049
24469307,101292.789062,21.370001,2.681902,0.2400,0.1900,9.5900,0.0000,-0.1875,0.1250,0.0000,0.0000,0.0000,16382.0000,164.0000,-213.0000,0.0000,-0.1137
24499807,101286.023438,21.379999,3.245611,0.2400,0.1800,9.6000,0.0000,0.0000,0.0625,0.0000,0.0000,0.0000,16382.0000,164.0000,-213.0000,0.0000,-0.0864
24529946,101276.031250,21.370001,4.077761,0.2400,0.1800,9.5900,0.0000,-0.1250,0.0000,0.0000,0.0000,0.0000,16382.0000,164.0000,-213.0000,0.0000,-0.1220
24560011,101286.023438,21.379999,3.245611,0.2500,0.1800,9.6000,0.0000,0.0625,0.0625,0.0000,0.0000,0.0000,16382.0000,164.0000,-213.0000,0.0000,-0.1274
24591383,101283.867188,21.370001,3.425049,0.2300,0.1800,9.5900,0.1250,-0.2500,0.0000,0.0000,0.0000,0.0000,16382.0000,164.0000,-213.0000,0.0000,-0.0982
24620964,101288.867188,21.370001,3.008738,0.2600,0.2000,9.5600,-0.0625,-0.1875,0.0000,0.0000,0.0000,0.0000,16382.0000,164.0000,-213.0000,0.0000,-0.1403
24650562,101284.953125,21.370001,3.334568,0.2300,0.1800,9.5900,-0.0625,0.0625,-0.0625,0.0000,0.0000,0.0000,16382.0000,164.0000,-213.0000,0.0000,-0.1636
24681971,101281.031250,21.370001,3.661424,0.2300,0.1700,9.5900,-0.1250,0.1875,0.0000,0.0000,0.0000,0.0000,16382.0000,164.0000,-213.0000,0.0000,-0.1463
24711514,101288.867188,21.370001,3.008738,0.2600,0.1800,9.5700,0.0000,0.1250,0.0000,0.0000,0.0000,0.0000,16382.0000,164.0000,-213.0000,0.0000,-0.1268
24741118,101273.187500,21.370001,4.314659,0.2300,0.1800,9.5800,-0.0625,-0.1250,0.0000,0.0000,0.0000,0.0000,16382.0000,164.0000,-213.0000,0.0000,0.0455
24772525,101286.023438,21.379999,3.245611,0.2300,0.1800,9.5900,0.0625,0.0625,-0.0625,0.0000,0.0000,0.0000,16382.0000,164.0000,-213.0000,0.0000,0.1055
24802072,101282.101562,21.379999,3.571957,0.2500,0.1800,9.5700,-0.1250,-0.0625,0.0000,0.0000,0.0000,0.0000,16382.0000,164.0000,-213.0000,0.0000,0.1399
24831675,101292.789062,21.370001,2.681902,0.2500,0.1800,9.5800,0.0000,-0.1875,0.0000,0.0000,0.0000,0.0000,16382.0000,164.0000,-213.0000,0.0000,0.0235
24861270,101292.789062,21.370001,2.681902,0.2400,0.2000,9.5900,-0.0625,-0.0625,0.0625,0.0000,0.0000,0.0000,16382.0000,164.0000,-213.0000,0.0000,-0.0311
24900466,101283.867188,21.370001,3.425049,0.2200,0.1700,9.5700,-0.0625,-0.0625,0.0000,0.0000,0.0000,0.0000,16382.0000,164.0000,-213.0000,0.0000,-0.0311
24930931,101279.953125,21.370001,3.750891,0.2300,0.1900,9.5700,-0.0625,0.0625,-0.0625,0.0000,0.0000,0.0000,16382.0000,164.0000,-213.0000,0.0000,0.0402
24961249,101292.789062,21.370001,2.681902,0.2400,0.1900,9.5900,-0.0625,0.1250,0.0000,0.0000,0.0000,0.0000,16382.0000,164.0000,-213.0000,0.0000,-0.0084
24992596,101281.031250,21.370001,3.661424,0.2300,0.1800,9.5800,-0.1250,0.1250,-0.1250,0.0000,0.0000,0.0000,16382.0000,164.0000,-213.0000,0.0000,-0.0066
25022168,101282.101562,21.379999,3.571957,0.2500,0.1800,9.5900,-0.0625,0.1875,-0.0625,0.0000,0.0000,0.0000,16382.0000,164.0000,-213.0000,0.0000,0.0402
25051739,101283.867188,21.370001,3.425049,0.2500,0.1800,9.5800,0.0000,0.0000,0.0000,0.0000,0.0000,0.0000,16382.0000,164.0000,-213.0000,0.0000,-0.0535
25081601,101287.796875,21.370001,3.097692,0.2400,0.1700,9.5700,0.0625,-0.1875,0.0000,0.0000,0.0000,0.0000,16382.0000,164.0000,-213.0000,0.0000,-0.0719
25112933,101291.718750,21.370001,2.771362,0.2400,0.1800,9.5500,-0.0625,0.0000,-0.0625,0.0000,0.0000,0.0000,16382.0000,164.0000,-213.0000,0.0000,-0.1240
25142576,101283.867188,21.370001,3.425049,0.2500,0.1900,9.5800,-0.0625,0.1250,0.0000,0.0000,0.0000,0.0000,16382.0000,164.0000,-213.0000,0.0000,-0.0533
25172100,101286.023438,21.379999,3.245611,0.2600,0.1700,9.5900,0.0625,-0.0625,0.1875,0.0000,0.0000,0.0000,16382.0000,164.0000,-213.0000,0.0000,-0.0064
25203466,101284.953125,21.370001,3.334568,0.2500,0.1900,9.5700,0.0000,0.0000,0.0625,0.0000,0.0000,0.0000,16382.0000,164.0000,-213.0000,0.0000,-0.0137
25233042,101284.953125,21.370001,3.334568,0.2300,0.1800,9.5800,0.0000,0.1875,0.0625,0.0000,0.0000,0.0000,16382.0000,164.0000,-213.0000,0.0000,-0.0571
25262619,101284.953125,21.370001,3.334568,0.2500,0.1800,9.5800,-0.0625,-0.1875,0.0000,0.0000,0.0000,0.0000,16382.0000,164.0000,-213.0000,0.0000,0.0034
25301780,101286.023438,21.379999,3.245611,0.2400,0.1700,9.6000,0.1875,-0.1875,0.1250,0.0000,0.0000,0.0000,16382.0000,164.0000,-213.0000,0.0000,-0.0346
25332161,101284.953125,21.370001,3.334568,0.2500,0.1800,9.5800,0.0625,0.0000,0.1875,0.0000,0.0000,0.0000,16382.0000,164.0000,-213.0000,0.0000,-0.0547
25362237,101296.710938,21.370001,2.355585,0.2500,0.1800,9.5900,0.0625,-0.0625,0.1250,0.0000,0.0000,0.0000,16382.0000,164.0000,-213.0000,0.0000,-0.1402
25392403,101288.867188,21.370001,3.008738,0.2300,0.1700,9.5800,0.0625,0.0625,-0.1875,0.0000,0.0000,0.0000,16382.0000,164.0000,-213.0000,0.0000,-0.1408
25423736,101283.867188,21.370001,3.425049,0.2300,0.1600,9.5700,0.0625,-0.0625,-0.0625,0.0000,0.0000,0.0000,16382.0000,164.0000,-213.0000,0.0000,-0.0773
25453386,101286.023438,21.379999,3.245611,0.2500,0.1600,9.5700,0.0000,0.0625,0.1250,0.0000,0.0000,0.0000,16382.0000,164.0000,-213.0000,0.0000,-0.0916
25482957,101291.718750,21.370001,2.771362,0.2300,0.1800,9.6000,0.1250,0.0000,0.0625,0.0000,0.0000,0.0000,16382.0000,164.0000,-213.0000,0.0000,-0.1260
25514256,101282.101562,21.379999,3.571957,0.2400,0.1800,9.5700,-0.1250,-0.1875,0.1250,0.0000,0.0000,0.0000,16382.0000,164.0000,-213.0000,0.0000,-0.1182
25543915,101283.867188,21.370001,3.425049,0.2400,0.1700,9.5700,0.0625,-0.3750,0.1250,0.0000,0.0000,0.0000,16382.0000,164.0000,-213.0000,0.0000,-0.1110
25573477,101289.953125,21.379999,2.918260,0.2400,0.1800,9.5700,0.0000,0.0000,0.0625,0.0000,0.0000,0.0000,16382.0000,164.0000,-213.0000,0.0000,-0.1277
25603062,101288.867188,21.370001,3.008738,0.2300,0.1700,9.5900,-0.0625,-0.0625,0.1875,0.0000,0.0000,0.0000,16382.0000,164.0000,-213.0000,0.0000,-0.1579
25643166,101286.023438,21.379999,3.245611,0.2500,0.1800,9.5700,-0.0625,-0.1250,0.0625,0.0000,0.0000,0.0000,16382.0000,164.0000,-213.0000,0.0000,-0.1668
25694062,101282.101562,21.379999,3.571957,0.2300,0.1700,9.5600,-0.0625,0.1250,-0.1875,0.0000,0.0000,0.0000,16382.0000,164.0000,-213.0000,0.0000,-0.0517
25723527,101287.796875,21.370001,3.097692,0.2500,0.1900,9.5800,0.1250,0.0000,0.0625,0.0000,0.0000,0.0000,16382.0000,164.0000,-213.0000,0.0000,-0.0464
25762962,101277.796875,21.360001,3.930846,0.2300,0.1800,9.5600,0.0000,0.1250,-0.1250,0.0000,0.0000,0.0000,16382.0000,164.0000,-213.0000,0.0000,-0.0142
25793458,101284.953125,21.370001,3.334568,0.2300,0.1800,9.6000,0.0000,-0.1250,-0.1250,0.0000,0.0000,0.0000,16382.0000,164.0000,-213.0000,0.0000,0.0161
25823538,101284.953125,21.370001,3.334568,0.2400,0.1700,9.6000,0.1250,0.0000,0.0000,0.0000,0.0000,0.0000,16382.0000,164.0000,-213.0000,0.0000,0.0724
25854891,101283.867188,21.370001,3.425049,0.2500,0.2000,9.5700,0.1250,-0.1250,0.1250,0.0000,0.0000,0.0000,16382.0000,164.0000,-213.0000,0.0000,0.0541
25884459,101289.953125,21.379999,2.918260,0.2500,0.1900,9.5900,-0.1250,0.1250,-0.0625,0.0000,0.0000,0.0000,16382.0000,164.0000,-213.0000,0.0000,0.0183
25914092,101284.953125,21.370001,3.334568,0.2400,0.2000,9.5900,0.0625,0.1250,-0.0625,0.0000,0.0000,0.0000,16382.0000,164.0000,-213.0000,0.0000,0.0653
25943970,101289.953125,21.379999,2.918260,0.2300,0.1700,9.5700,0.0000,-0.0625,0.0000,0.0000,0.0000,0.0000,16382.0000,164.0000,-213.0000,0.0000,0.0693
25975313,101287.796875,21.370001,3.097692,0.2400,0.1700,9.5700,-0.0625,0.1250,-0.1250,0.0000,0.0000,0.0000,16382.0000,164.0000,-213.0000,0.0000,0.0528
26004913,101286.718750,21.360001,3.187663,0.2200,0.1800,9.5900,-0.1250,0.1250,-0.0625,0.0000,0.0000,0.0000,16382.0000,164.0000,-213.0000,0.0000,-0.0011
26034487,101283.867188,21.370001,3.425049,0.2500,0.1800,9.6000,0.0000,-0.2500,0.0625,0.0000,0.0000,0.0000,16382.0000,164.0000,-213.0000,0.0000,0.0167
26065842,101292.789062,21.370001,2.681902,0.2200,0.1900,9.5700,0.0000,-0.3125,-0.0625,0.0000,0.0000,0.0000,16382.0000,164.0000,-213.0000,0.0000,-0.0969
26095492,101283.867188,21.370001,3.425049,0.2400,0.1800,9.5900,0.0000,-0.0625,0.0625,0.0000,0.0000,0.0000,16382.0000,164.0000,-213.0000,0.0000,-0.0748
26125024,101276.031250,21.370001,4.077761,0.2300,0.1700,9.5900,0.0625,-0.0625,-0.0625,0.0000,0.0000,0.0000,16382.0000,164.0000,-213.0000,0.0000,-0.0171
26154619,101277.109375,21.370001,3.987782,0.2300,0.1800,9.6000,0.0000,0.0625,-0.0625,0.0000,0.0000,0.0000,16382.0000,164.0000,-213.0000,0.0000,0.0279
26194117,101296.710938,21.370001,2.355585,0.2400,0.1900,9.5800,0.0000,0.1875,-0.1250,0.0000,0.0000,0.0000,16382.0000,164.0000,-213.0000,0.0000,-0.0153
26224585,101281.718750,21.360001,3.603982,0.2300,0.1900,9.5600,0.0625,0.0000,0.0625,0.0000,0.0000,0.0000,16382.0000,164.0000,-213.0000,0.0000,0.0063
26254920,101287.796875,21.370001,3.097692,0.2300,0.1800,9.5900,0.0625,-0.0625,-0.0625,0.0000,0.0000,0.0000,16382.0000,164.0000,-213.0000,0.0000,0.0355
26286241,101284.953125,21.370001,3.334568,0.2400,0.1700,9.5900,-0.0625,0.0625,-0.0625,0.0000,0.0000,0.0000,16382.0000,164.0000,-213.0000,0.0000,0.0527
26315871,101292.789062,21.370001,2.681902,0.2400,0.1700,9.5900,-0.0625,-0.0625,-0.0625,0.0000,0.0000,0.0000,16382.0000,164.0000,-213.0000,0.0000,0.0347
26345500,101278.179688,21.379999,3.898820,0.2500,0.1900,9.5900,0.0000,0.1875,-0.0625,0.0000,0.0000,0.0000,16382.0000,164.0000,-213.0000,0.0000,0.0690
26376801,101282.796875,21.360001,3.514515,0.2300,0.1900,9.5900,0.0000,0.0000,0.0000,0.0000,0.0000,0.0000,16382.0000,164.0000,-213.0000,0.0000,0.1535
26406421,101282.796875,21.360001,3.514515,0.2400,0.1700,9.6000,0.0625,0.0625,-0.0625,0.0000,0.0000,0.0000,16382.0000,164.0000,-213.0000,0.0000,0.1458
26435947,101288.867188,21.370001,3.008738,0.2400,0.1700,9.6000,0.0625,0.0625,-0.0625,0.0000,0.0000,0.0000,16382.0000,164.0000,-213.0000,0.0000,0.0323
26465546,101284.953125,21.370001,3.334568,0.2300,0.1700,9.6000,-0.0625,0.0625,-0.1875,0.0000,0.0000,0.0000,16382.0000,164.0000,-213.0000,0.0000,-0.0312
26496845,101276.031250,21.370001,4.077761,0.2300,0.1900,9.5800,-0.0625,0.1250,-0.0625,0.0000,0.0000,0.0000,16382.0000,164.0000,-213.0000,0.0000,0.1345
26526471,101286.023438,21.379999,3.245611,0.2200,0.1600,9.5700,0.0000,0.1875,0.0000,0.0000,0.0000,0.0000,16382.0000,164.0000,-213.0000,0.0000,0.0874
26556019,101278.179688,21.379999,3.898820,0.2200,0.1800,9.5600,0.0000,0.0000,0.0000,0.0000,0.0000,0.0000,16382.0000,164.0000,-213.0000,0.0000,0.1627
26595372,101283.867188,21.370001,3.425049,0.2300,0.2000,9.5800,0.1250,-0.0625,0.1250,0.0000,0.0000,0.0000,16382.0000,164.0000,-213.0000,0.0000,0.1747
26625904,101292.789062,21.370001,2.681902,0.2400,0.1900,9.5800,0.0625,0.0000,-0.0625,0.0000,0.0000,0.0000,16382.0000,164.0000,-213.0000,0.0000,0.1896
26655967,101278.179688,21.379999,3.898820,0.2300,0.1900,9.6100,0.0000,0.0000,0.0000,0.0000,0.0000,0.0000,16382.0000,164.0000,-213.0000,0.0000,0.1736
26686074,101273.187500,21.370001,4.314659,0.2400,0.1700,9.5900,0.0625,-0.0625,0.0625,0.0000,0.0000,0.0000,16382.0000,164.0000,-213.0000,0.0000,0.2227
26717446,101283.179688,21.379999,3.482490,0.2400,0.2000,9.5800,0.0000,-0.1875,-0.0625,0.0000,0.0000,0.0000,16382.0000,164.0000,-213.0000,0.0000,0.2184
26747054,101283.867188,21.370001,3.425049,0.2400,0.1900,9.5800,0.0625,0.0000,0.1250,0.0000,0.0000,0.0000,16382.0000,164.0000,-213.0000,0.0000,0.2564
26776650,101286.023438,21.379999,3.245611,0.2500,0.1800,9.5900,0.0625,-0.1250,0.0000,0.0000,0.0000,0.0000,16382.0000,164.0000,-213.0000,0.0000,0.2493
26807953,101292.789062,21.370001,2.681902,0.2300,0.1700,9.5900,0.1250,0.0625,0.0000,0.0000,0.0000,0.0000,16382.0000,164.0000,-213.0000,0.0000,0.1228
26837600,101284.953125,21.370001,3.334568,0.2400,0.1800,9.5700,-0.0625,0.2500,0.0625,0.0000,0.0000,0.0000,16382.0000,164.0000,-213.0000,0.0000,0.1316
26867159,101276.031250,21.370001,4.077761,0.2400,0.1900,9.5700,0.1250,0.0000,0.0000,0.0000,0.0000,0.0000,16382.0000,164.0000,-213.0000,0.0000,0.1329
26898545,101286.023438,21.379999,3.245611,0.2500,0.1700,9.5700,0.0625,-0.1250,-0.1250,0.0000,0.0000,0.0000,16382.0000,164.0000,-213.0000,0.0000,0.1167
26928183,101283.867188,21.370001,3.425049,0.2300,0.1800,9.5700,0.0625,-0.0625,0.0625,0.0000,0.0000,0.0000,16382.0000,164.0000,-213.0000,0.0000,0.1697
26957752,101306.710938,21.379999,1.522557,0.2300,0.1900,9.5700,0.0625,-0.1250,0.0000,0.0000,0.0000,0.0000,16382.0000,164.0000,-213.0000,0.0000,-0.0382
26987349,101283.867188,21.370001,3.425049,0.2400,0.1800,9.5900,-0.0625,-0.0625,0.0625,0.0000,0.0000,0.0000,16382.0000,164.0000,-213.0000,0.0000,-0.1272
27026536,101291.023438,21.379999,2.829308,0.2500,0.1800,9.5900,0.0625,0.1250,0.1250,0.0000,0.0000,0.0000,16382.0000,164.0000,-213.0000,0.0000,-0.1842
27056992,101291.718750,21.370001,2.771362,0.2500,0.1600,9.5900,0.1250,0.0625,-0.0625,0.0000,0.0000,0.0000,16382.0000,164.0000,-213.0000,0.0000,-0.2496
27087134,101279.953125,21.370001,3.750891,0.2400,0.1900,9.6000,0.0625,0.0000,0.0000,0.0000,0.0000,0.0000,16382.0000,164.0000,-213.0000,0.0000,-0.2026
27118556,101273.882812,21.360001,4.256704,0.2700,0.1700,9.6000,0.0000,-0.1875,0.0000,0.0000,0.0000,0.0000,16382.0000,164.0000,-213.0000,0.0000,-0.0618
27148108,101288.867188,21.370001,3.008738,0.2300,0.1700,9.5800,0.0000,0.0000,0.0000,0.0000,0.0000,0.0000,16382.0000,164.0000,-213.0000,0.0000,-0.0962
27177703,101292.789062,21.370001,2.681902,0.2300,0.1900,9.5900,0.0625,0.0000,0.0000,0.0000,0.0000,0.0000,16382.0000,164.0000,-213.0000,0.0000,-0.2292
27207552,101291.718750,21.370001,2.771362,0.2200,0.1800,9.6000,0.0625,-0.1250,0.0625,0.0000,0.0000,0.0000,16382.0000,164.0000,-213.0000,0.0000,-0.2671
27269984,101293.867188,21.379999,2.592444,0.2400,0.1700,9.5800,0.0000,0.2500,0.0000,0.0000,0.0000,0.0000,16382.0000,164.0000,-213.0000,0.0000,-0.3308
27299599,101301.710938,21.379999,1.939317,0.2500,0.1900,9.6000,0.0625,-0.1250,0.0000,0.0000,0.0000,0.0000,16382.0000,164.0000,-213.0000,0.0000,-0.2660
27329191,101286.023438,21.379999,3.245611,0.2500,0.1800,9.5700,0.0625,-0.1250,0.0000,0.0000,0.0000,0.0000,16382.0000,164.0000,-213.0000,0.0000,-0.2702
27360562,101284.953125,21.370001,3.334568,0.2300,0.1800,9.6100,0.1875,0.0625,-0.0625,0.0000,0.0000,0.0000,16382.0000,164.0000,-213.0000,0.0000,-0.2197
27390130,101281.031250,21.370001,3.661424,0.2500,0.1900,9.5700,0.1250,0.1250,-0.0625,0.0000,0.0000,0.0000,16382.0000,164.0000,-213.0000,0.0000,-0.1372
27419763,101286.023438,21.379999,3.245611,0.2400,0.1700,9.5900,0.0625,-0.0625,0.0625,0.0000,0.0000,0.0000,16382.0000,164.0000,-213.0000,0.0000,-0.1842
27457916,101283.867188,21.370001,3.425049,0.2400,0.1700,9.5800,0.0625,0.1250,-0.0625,0.0000,0.0000,0.0000,16382.0000,164.0000,-213.0000,0.0000,-0.2775
27488256,101291.718750,21.370001,2.771362,0.2500,0.1800,9.5700,-0.0625,0.1250,0.0625,0.0000,0.0000,0.0000,16382.0000,164.0000,-213.0000,0.0000,-0.2899
27518367,101282.796875,21.360001,3.514515,0.2300,0.1700,9.5700,0.0625,0.0000,0.0000,0.0000,0.0000,0.0000,16382.0000,164.0000,-213.0000,0.0000,-0.2186
27548518,101286.023438,21.379999,3.245611,0.2500,0.1700,9.6000,0.0625,0.0625,0.1250,0.0000,0.0000,0.0000,16382.0000,164.0000,-213.0000,0.0000,-0.1741
27579860,101283.867188,21.370001,3.425049,0.2400,0.1900,9.5800,0.0000,0.0000,0.0625,0.0000,0.0000,0.0000,16382.0000,164.0000,-213.0000,0.0000,-0.0956
27609442,101291.718750,21.370001,2.771362,0.2300,0.1800,9.5600,0.1875,0.0625,0.0000,0.0000,0.0000,0.0000,16382.0000,164.0000,-213.0000,0.0000,0.0007
27639034,101286.023438,21.379999,3.245611,0.2300,0.1900,9.5700,0.0625,0.0000,0.1250,0.0000,0.0000,0.0000,16382.0000,164.0000,-213.0000,0.0000,-0.0106
27670394,101276.031250,21.370001,4.077761,0.2300,0.1900,9.6100,0.1250,-0.1250,-0.0625,0.0000,0.0000,0.0000,16382.0000,164.0000,-213.0000,0.0000,0.0507
27699988,101289.953125,21.379999,2.918260,0.2300,0.1600,9.5900,0.0000,0.1250,0.0000,0.0000,0.0000,0.0000,16382.0000,164.0000,-213.0000,0.0000,-0.0005
27729617,101279.953125,21.370001,3.750891,0.2200,0.1900,9.5800,-0.0625,-0.1250,-0.0625,0.0000,0.0000,0.0000,16382.0000,164.0000,-213.0000,0.0000,0.0548
27759158,101286.023438,21.379999,3.245611,0.2400,0.1700,9.5800,-0.0625,-0.0625,-0.0625,0.0000,0.0000,0.0000,16382.0000,164.0000,-213.0000,0.0000,0.0190
27790521,101283.867188,21.370001,3.425049,0.2600,0.1800,9.5800,0.0625,0.0625,-0.1250,0.0000,0.0000,0.0000,16382.0000,164.0000,-213.0000,0.0000,0.0880
27820123,101277.109375,21.370001,3.987782,0.2500,0.1900,9.5700,0.0000,0.1250,-0.0625,0.0000,0.0000,0.0000,16382.0000,164.0000,-213.0000,0.0000,0.1175
27849736,101286.023438,21.379999,3.245611,0.2400,0.1700,9.6000,-0.0625,0.0000,-0.0625,0.0000,0.0000,0.0000,16382.0000,164.0000,-213.0000,0.0000,0.1193
27888969,101273.187500,21.370001,4.314659,0.2500,0.1900,9.5700,0.0625,0.0000,0.0000,0.0000,0.0000,0.0000,16382.0000,164.0000,-213.0000,0.0000,0.1756
27919420,101283.867188,21.370001,3.425049,0.2300,0.1500,9.5900,0.0625,-0.0625,0.0625,0.0000,0.0000,0.0000,16382.0000,164.0000,-213.0000,0.0000,0.2504
27949621,101291.718750,21.370001,2.771362,0.2400,0.1900,9.5900,-0.0625,0.0625,0.0000,0.0000,0.0000,0.0000,16382.0000,164.0000,-213.0000,0.0000,0.2179
27980922,101269.257812,21.370001,4.642054,0.2400,0.1800,9.5800,0.0000,0.0625,-0.0625,0.0000,0.0000,0.0000,16382.0000,164.0000,-213.0000,0.0000,0.2518
28010510,101277.109375,21.370001,3.987782,0.2300,0.1900,9.5900,0.0000,0.1875,0.0000,0.0000,0.0000,0.0000,16382.0000,164.0000,-213.0000,0.0000,0.3391
28040142,101284.953125,21.370001,3.334568,0.2300,0.1800,9.5700,0.0000,-0.1875,0.0625,0.0000,0.0000,0.0000,16382.0000,164.0000,-213.0000,0.0000,0.2975
28069968,101283.867188,21.370001,3.425049,0.2200,0.1700,9.6000,0.0000,0.1875,0.0625,0.0000,0.0000,0.0000,16382.0000,164.0000,-213.0000,0.0000,0.3285
28101281,101284.953125,21.370001,3.334568,0.2500,0.1800,9.5900,0.0625,-0.1250,0.0000,0.0000,0.0000,0.0000,16382.0000,164.0000,-213.0000,0.0000,0.3177
28130890,101281.031250,21.370001,3.661424,0.2500,0.1900,9.6000,0.0000,0.0000,0.0000,0.0000,0.0000,0.0000,16382.0000,164.0000,-213.0000,0.0000,0.2898
28160463,101287.796875,21.370001,3.097692,0.2500,0.1900,9.5900,0.0000,-0.0625,-0.0625,0.0000,0.0000,0.0000,16382.0000,164.0000,-213.0000,0.0000,0.2815
28191791,101283.867188,21.370001,3.425049,0.2300,0.1800,9.5900,-0.0625,0.2500,-0.1250,0.0000,0.0000,0.0000,16382.0000,164.0000,-213.0000,0.0000,0.1777
28221396,101286.718750,21.360001,3.187663,0.2400,0.2000,9.5800,0.0625,0.0625,0.0000,0.0000,0.0000,0.0000,16382.0000,164.0000,-213.0000,0.0000,0.1682
28250995,101282.101562,21.379999,3.571957,0.2400,0.1800,9.5700,0.0625,0.0625,0.0625,0.0000,0.0000,0.0000,16382.0000,164.0000,-213.0000,0.0000,0.2631
28280654,101272.109375,21.370001,4.404640,0.2600,0.1600,9.5600,-0.0625,0.0625,0.0000,0.0000,0.0000,0.0000,16382.0000,164.0000,-213.0000,0.0000,0.2209
28320121,101283.867188,21.370001,3.425049,0.2500,0.1800,9.5900,0.0000,0.0000,0.1875,0.0000,0.0000,0.0000,16382.0000,164.0000,-213.0000,0.0000,0.1647
28350620,101287.796875,21.370001,3.097692,0.2300,0.1700,9.5800,0.0625,-0.0625,0.0000,0.0000,0.0000,0.0000,16382.0000,164.0000,-213.0000,0.0000,0.1439
28380756,101284.953125,21.370001,3.334568,0.2400,0.1900,9.5800,0.0000,0.2500,-0.0625,0.0000,0.0000,0.0000,16382.0000,164.0000,-213.0000,0.0000,0.1218
28412126,101279.953125,21.370001,3.750891,0.2400,0.1700,9.5700,0.0000,0.0625,-0.0625,0.0000,0.0000,0.0000,16382.0000,164.0000,-213.0000,0.0000,0.1551
28441778,101284.953125,21.370001,3.334568,0.2200,0.1900,9.6000,0.0625,0.0000,0.0000,0.0000,0.0000,0.0000,16382.0000,164.0000,-213.0000,0.0000,0.1373
28471348,101284.953125,21.370001,3.334568,0.2300,0.1700,9.6000,-0.0625,-0.1250,0.0625,0.0000,0.0000,0.0000,16382.0000,164.0000,-213.0000,0.0000,0.1592
28501153,101277.109375,21.370001,3.987782,0.2500,0.1600,9.6000,-0.1875,0.0625,-0.0625,0.0000,0.0000,0.0000,16382.0000,164.0000,-213.0000,0.0000,0.2042
28532525,101292.789062,21.370001,2.681902,0.2400,0.2000,9.5900,0.0625,0.0000,0.0000,0.0000,0.0000,0.0000,16382.0000,164.0000,-213.0000,0.0000,0.1305
28562121,101284.953125,21.370001,3.334568,0.2400,0.2000,9.5700,-0.0625,0.0000,-0.0625,0.0000,0.0000,0.0000,16382.0000,164.0000,-213.0000,0.0000,0.1085
28591726,101284.953125,21.370001,3.334568,0.2500,0.1900,9.6000,-0.0625,0.1250,0.0000,0.0000,0.0000,0.0000,16382.0000,164.0000,-213.0000,0.0000,-0.0086
28623102,101284.953125,21.370001,3.334568,0.2500,0.1800,9.6200,0.0000,0.0625,0.0000,0.0000,0.0000,0.0000,16382.0000,164.0000,-213.0000,0.0000,-0.0289
28652757,101286.023438,21.379999,3.245611,0.2200,0.1900,9.5700,0.1250,-0.1250,0.0000,0.0000,0.0000,0.0000,16382.0000,164.0000,-213.0000,0.0000,-0.0040
28682309,101286.023438,21.379999,3.245611,0.2400,0.1900,9.6100,-0.0625,0.1250,-0.0625,0.0000,0.0000,0.0000,16382.0000,164.0000,-213.0000,0.0000,0.0073
28721275,101284.953125,21.370001,3.334568,0.2500,0.1700,9.5500,0.0000,0.3750,-0.1250,0.0000,0.0000,0.0000,16382.0000,164.0000,-213.0000,0.0000,-0.0408
28751660,101292.789062,21.370001,2.681902,0.2400,0.1800,9.5700,0.0625,0.1250,0.0000,0.0000,0.0000,0.0000,16382.0000,164.0000,-213.0000,0.0000,-0.1061
28781812,101284.953125,21.370001,3.334568,0.2300,0.1800,9.5500,-0.0625,0.0000,0.0000,0.0000,0.0000,0.0000,16382.0000,164.0000,-213.0000,0.0000,-0.1173
28842102,101283.867188,21.370001,3.425049,0.2400,0.1800,9.5900,0.0625,-0.1250,0.0000,0.0000,0.0000,0.0000,16382.0000,164.0000,-213.0000,0.0000,-0.1903
28873877,101282.796875,21.360001,3.514515,0.2500,0.1800,9.5800,-0.0625,0.2500,0.0000,0.0000,0.0000,0.0000,16382.0000,164.0000,-213.0000,0.0000,-0.1385
28903414,101273.187500,21.370001,4.314659,0.2500,0.1700,9.5700,-0.0625,0.0625,0.0000,0.0000,0.0000,0.0000,16382.0000,164.0000,-213.0000,0.0000,-0.0619
28933005,101278.179688,21.379999,3.898820,0.2200,0.1800,9.5700,0.0625,-0.0625,0.0625,0.0000,0.0000,0.0000,16382.0000,164.0000,-213.0000,0.0000,-0.0167
28964374,101283.867188,21.370001,3.425049,0.2600,0.1800,9.5600,-0.0625,0.0625,0.0625,0.0000,0.0000,0.0000,16382.0000,164.0000,-213.0000,0.0000,-0.0030
28993908,101286.023438,21.379999,3.245611,0.2300,0.1900,9.5700,0.1250,0.0000,0.0625,0.0000,0.0000,0.0000,16382.0000,164.0000,-213.0000,0.0000,-0.0030
29023479,101286.023438,21.379999,3.245611,0.2200,0.1700,9.5700,0.0000,-0.0625,0.0000,0.0000,0.0000,0.0000,16382.0000,164.0000,-213.0000,0.0000,0.0006
29053061,101284.953125,21.370001,3.334568,0.2100,0.1700,9.5800,0.0625,-0.0625,-0.0625,0.0000,0.0000,0.0000,16382.0000,164.0000,-213.0000,0.0000,-0.0106
29084421,101283.179688,21.379999,3.482490,0.2400,0.1800,9.5800,0.0625,-0.1250,0.0000,0.0000,0.0000,0.0000,16382.0000,164.0000,-213.0000,0.0000,0.0701
29114058,101282.101562,21.379999,3.571957,0.2200,0.1800,9.6000,0.0625,-0.0625,0.0000,0.0000,0.0000,0.0000,16382.0000,164.0000,-213.0000,0.0000,0.0873
29143616,101279.953125,21.370001,3.750891,0.2500,0.1800,9.5800,-0.0625,-0.0625,0.0625,0.0000,0.0000,0.0000,16382.0000,164.0000,-213.0000,0.0000,0.1133
29182603,101292.789062,21.370001,2.681902,0.2300,0.1800,9.5700,0.0625,0.0625,0.0000,0.0000,0.0000,0.0000,16382.0000,164.0000,-213.0000,0.0000,0.0319
29212913,101283.867188,21.370001,3.425049,0.2400,0.1900,9.5800,-0.0625,0.1250,-0.0625,0.0000,0.0000,0.0000,16382.0000,164.0000,-213.0000,0.0000,-0.0607
29243033,101282.101562,21.379999,3.571957,0.2500,0.1700,9.5700,0.0000,0.1875,-0.0625,0.0000,0.0000,0.0000,16382.0000,164.0000,-213.0000,0.0000,-0.0832
29274417,101281.031250,21.370001,3.661424,0.2500,0.1900,9.5800,-0.0625,0.0625,0.0000,0.0000,0.0000,0.0000,16382.0000,164.0000,-213.0000,0.0000,-0.0745
29303992,101287.796875,21.370001,3.097692,0.2600,0.1900,9.5900,-0.0625,0.1250,-0.0625,0.0000,0.0000,0.0000,16382.0000,164.0000,-213.0000,0.0000,-0.0762
29333589,101276.031250,21.370001,4.077761,0.2300,0.1800,9.6000,-0.0625,-0.1250,-0.1875,0.0000,0.0000,0.0000,16382.0000,164.0000,-213.0000,0.0000,-0.0096
29363511,101286.023438,21.379999,3.245611,0.2400,0.1800,9.5600,0.0000,0.1250,-0.1875,0.0000,0.0000,0.0000,16382.0000,164.0000,-213.0000,0.0000,-0.0149
29394914,101291.718750,21.370001,2.771362,0.2400,0.1800,9.5800,0.0000,0.0625,-0.1250,0.0000,0.0000,0.0000,16382.0000,164.0000,-213.0000,0.0000,-0.0617
29424492,101283.867188,21.370001,3.425049,0.2400,0.2000,9.5700,-0.1875,0.0625,0.0000,0.0000,0.0000,0.0000,16382.0000,164.0000,-213.0000,0.0000,-0.0800
29454105,101288.867188,21.370001,3.008738,0.2400,0.1900,9.5700,0.0625,0.0625,-0.0625,0.0000,0.0000,0.0000,16382.0000,164.0000,-213.0000,0.0000,-0.1281
29485540,101284.953125,21.370001,3.334568,0.2400,0.1800,9.5900,0.0625,-0.0625,0.0625,0.0000,0.0000,0.0000,16382.0000,164.0000,-213.0000,0.0000,-0.0610
29515087,101279.953125,21.370001,3.750891,0.2500,0.1900,9.5600,-0.1250,0.0000,0.0625,0.0000,0.0000,0.0000,16382.0000,164.0000,-213.0000,0.0000,-0.0480
29544717,101289.953125,21.379999,2.918260,0.2400,0.1700,9.5500,-0.1875,0.0000,0.0625,0.0000,0.0000,0.0000,16382.0000,164.0000,-213.0000,0.0000,-0.0789
29583666,101286.023438,21.379999,3.245611,0.2400,0.1700,9.5900,0.0625,0.1250,0.0000,0.0000,0.0000,0.0000,16382.0000,164.0000,-213.0000,0.0000,-0.1057
29614192,101279.953125,21.370001,3.750891,0.2400,0.1600,9.5700,-0.1250,0.1250,0.0625,0.0000,0.0000,0.0000,16382.0000,164.0000,-213.0000,0.0000,-0.0487
29642061,101279.953125,21.370001,3.750891,0.2400,0.1600,9.5700,-0.1250,0.1250,0.0625,0.0000,0.0000,0.0000,16382.0000,164.0000,-213.0000,0.0000,-0.0879
29673950,101284.953125,21.370001,3.334568,0.2600,0.1800,9.5700,-0.1250,0.0000,0.1250,0.0000,0.0000,0.0000,16382.0000,164.0000,-213.0000,0.0000,-0.0790
29705321,101289.953125,21.379999,2.918260,0.2400,0.1900,9.6000,0.0625,-0.1875,-0.0625,0.0000,0.0000,0.0000,16382.0000,164.0000,-213.0000,0.0000,-0.0494
29734976,101293.867188,21.379999,2.592444,0.2300,0.1900,9.5500,0.0000,0.1875,0.0625,0.0000,0.0000,0.0000,16382.0000,164.0000,-213.0000,0.0000,-0.1226
29764669,101283.867188,21.370001,3.425049,0.2300,0.1800,9.5900,0.0625,0.1250,0.0000,0.0000,0.0000,0.0000,16382.0000,164.0000,-213.0000,0.0000,-0.0809
29796068,101281.031250,21.370001,3.661424,0.2500,0.1900,9.5900,0.0625,-0.0625,0.0000,0.0000,0.0000,0.0000,16382.0000,164.0000,-213.0000,0.0000,-0.0577
29825618,101286.023438,21.379999,3.245611,0.2400,0.1800,9.5900,0.0000,-0.1250,0.0625,0.0000,0.0000,0.0000,16382.0000,164.0000,-213.0000,0.0000,-0.1017
29855243,101279.953125,21.370001,3.750891,0.2500,0.1900,9.5900,-0.0625,0.0000,-0.0625,0.0000,0.0000,0.0000,16382.0000,164.0000,-213.0000,0.0000,-0.0054
29885023,101277.109375,21.370001,3.987782,0.2400,0.1800,9.5600,0.0000,-0.1875,-0.0625,0.0000,0.0000,0.0000,16382.0000,164.0000,-213.0000,0.0000,0.0576
29916425,101283.867188,21.370001,3.425049,0.2400,0.1900,9.5900,0.0625,-0.2500,0.0000,0.0000,0.0000,0.0000,16382.0000,164.0000,-213.0000,0.0000,0.0184
29945997,101287.796875,21.370001,3.097692,0.2500,0.1700,9.5900,0.0625,0.0000,0.0000,0.0000,0.0000,0.0000,16382.0000,164.0000,-213.0000,0.0000,-0.0421
29975573,101283.867188,21.370001,3.425049,0.2500,0.1700,9.5800,0.0000,0.1250,0.0000,0.0000,0.0000,0.0000,16382.0000,164.0000,-213.0000,0.0000,-0.0266
30014899,101284.953125,21.370001,3.334568,0.2400,0.1700,9.5900,0.0000,0.0000,-0.0625,0.0000,0.0000,0.0000,16382.0000,164.0000,-213.0000,0.0000,0.0150
30045357,101284.953125,21.370001,3.334568,0.2400,0.1900,9.5800,-0.0625,-0.1250,0.0000,0.0000,0.0000,0.0000,16382.0000,164.0000,-213.0000,0.0000,0.0893
30075470,101286.718750,21.360001,3.187663,0.2400,0.1900,9.5900,-0.1875,0.0000,-0.1250,0.0000,0.0000,0.0000,16382.0000,164.0000,-213.0000,0.0000,0.0815
30106817,101279.953125,21.370001,3.750891,0.2400,0.1700,9.5700,0.0000,0.0625,0.0000,0.0000,0.0000,0.0000,16382.0000,164.0000,-213.0000,0.0000,0.0691
30136418,101283.867188,21.370001,3.425049,0.2300,0.1800,9.6000,0.1250,0.0000,0.0000,0.0000,0.0000,0.0000,16382.0000,164.0000,-213.0000,0.0000,0.0852
30165996,101283.867188,21.370001,3.425049,0.2500,0.1900,9.5700,0.0625,-0.1250,-0.0625,0.0000,0.0000,0.0000,16382.0000,164.0000,-213.0000,0.0000,0.0508
30195824,101284.953125,21.370001,3.334568,0.2300,0.1900,9.5700,-0.0625,-0.0625,-0.0625,0.0000,0.0000,0.0000,16382.0000,164.0000,-213.0000,0.0000,-0.0145
30227228,101284.953125,21.370001,3.334568,0.2500,0.1700,9.5800,0.0000,0.0000,-0.1875,0.0000,0.0000,0.0000,16382.0000,164.0000,-213.0000,0.0000,-0.0253
30256783,101281.718750,21.360001,3.603982,0.2400,0.1700,9.5800,-0.0625,0.0000,0.0000,0.0000,0.0000,0.0000,16382.0000,164.0000,-213.0000,0.0000,0.0181
30286374,101276.031250,21.370001,4.077761,0.2500,0.1800,9.5800,0.0000,-0.1875,-0.0625,0.0000,0.0000,0.0000,16382.0000,164.0000,-213.0000,0.0000,0.0686
30317774,101287.796875,21.370001,3.097692,0.2400,0.1800,9.5900,0.0000,0.0625,0.0000,0.0000,0.0000,0.0000,16382.0000,164.0000,-213.0000,0.0000,0.0365
30347380,101283.867188,21.370001,3.425049,0.2400,0.1800,9.5800,0.0000,-0.0625,0.0000,0.0000,0.0000,0.0000,16382.0000,164.0000,-213.0000,0.0000,0.0438
30376995,101283.867188,21.370001,3.425049,0.2500,0.1700,9.5800,0.0625,-0.1250,0.0625,0.0000,0.0000,0.0000,16382.0000,164.0000,-213.0000,0.0000,0.0675
30416258,101289.570312,21.360001,2.950283,0.2300,0.1800,9.5600,-0.1250,0.0625,-0.1250,0.0000,0.0000,0.0000,16382.0000,164.0000,-213.0000,0.0000,-0.0013
30476370,101292.789062,21.370001,2.681902,0.2500,0.1700,9.5600,-0.0625,-0.3125,0.0000,0.0000,0.0000,0.0000,16382.0000,164.0000,-213.0000,0.0000,-0.0429
30506551,101290.640625,21.360001,2.860822,0.2400,0.1700,9.5800,-0.1250,-0.0625,0.0625,0.0000,0.0000,0.0000,16382.0000,164.0000,-213.0000,0.0000,-0.0786
30536655,101287.796875,21.370001,3.097692,0.2100,0.1700,9.5800,-0.0625,-0.0625,0.1250,0.0000,0.0000,0.0000,16382.0000,164.0000,-213.0000,0.0000,-0.0957
30567979,101283.867188,21.370001,3.425049,0.2500,0.2000,9.5800,-0.0625,0.0000,-0.0625,0.0000,0.0000,0.0000,16382.0000,164.0000,-213.0000,0.0000,-0.0903
30597637,101289.570312,21.360001,2.950283,0.2300,0.1800,9.5800,0.0625,0.0000,0.0625,0.0000,0.0000,0.0000,16382.0000,164.0000,-213.0000,0.0000,-0.1497
30627189,101281.718750,21.360001,3.603982,0.2500,0.1700,9.5800,-0.1250,-0.1875,0.0000,0.0000,0.0000,0.0000,16382.0000,164.0000,-213.0000,0.0000,-0.2025
30658606,101287.796875,21.370001,3.097692,0.2200,0.1800,9.6000,0.0000,0.0000,-0.0625,0.0000,0.0000,0.0000,16382.0000,164.0000,-213.0000,0.0000,-0.1948
30688174,101276.031250,21.370001,4.077761,0.2500,0.1900,9.5700,-0.0625,0.0625,0.0000,0.0000,0.0000,0.0000,16382.0000,164.0000,-213.0000,0.0000,-0.1396
30717800,101283.867188,21.370001,3.425049,0.2400,0.1800,9.5700,0.0625,0.1875,-0.0625,0.0000,0.0000,0.0000,16382.0000,164.0000,-213.0000,0.0000,-0.1331
30747412,101283.867188,21.370001,3.425049,0.2300,0.1700,9.5900,0.0625,0.0625,-0.0625,0.0000,0.0000,0.0000,16382.0000,164.0000,-213.0000,0.0000,-0.1005
30778784,101292.789062,21.370001,2.681902,0.2400,0.1800,9.5600,0.1250,-0.0625,0.0000,0.0000,0.0000,0.0000,16382.0000,164.0000,-213.0000,0.0000,-0.0856
30808377,101279.953125,21.370001,3.750891,0.2500,0.1900,9.5900,-0.0625,-0.0625,-0.0625,0.0000,0.0000,0.0000,16382.0000,164.0000,-213.0000,0.0000,-0.0002
30837991,101274.960938,21.360001,4.166724,0.2300,0.1800,9.5800,0.0625,-0.1250,0.0625,0.0000,0.0000,0.0000,16382.0000,164.0000,-213.0000,0.0000,0.0966
30877323,101279.953125,21.370001,3.750891,0.2500,0.1900,9.5700,0.0000,0.0625,-0.0625,0.0000,0.0000,0.0000,16382.0000,164.0000,-213.0000,0.0000,0.1161
30907612,101283.867188,21.370001,3.425049,0.2200,0.1800,9.5900,0.0625,0.1875,0.0000,0.0000,0.0000,0.0000,16382.0000,164.0000,-213.0000,0.0000,0.1766
30937711,101283.867188,21.370001,3.425049,0.2300,0.1800,9.5800,0.0625,0.0625,0.0625,0.0000,0.0000,0.0000,16382.0000,164.0000,-213.0000,0.0000,0.1552
30967809,101299.562500,21.370001,2.118224,0.2300,0.1900,9.6000,0.0000,0.1250,-0.0625,0.0000,0.0000,0.0000,16382.0000,164.0000,-213.0000,0.0000,0.0703
30999180,101283.867188,21.370001,3.425049,0.2400,0.1800,9.6000,0.0625,0.0000,-0.0625,0.0000,0.0000,0.0000,16382.0000,164.0000,-213.0000,0.0000,0.0050
31028762,101284.953125,21.370001,3.334568,0.2300,0.1600,9.5800,-0.0625,0.0000,0.0000,0.0000,0.0000,0.0000,16382.0000,164.0000,-213.0000,0.0000,-0.0106
31058363,101290.640625,21.360001,2.860822,0.2400,0.1800,9.5900,0.0000,0.1250,0.1250,0.0000,0.0000,0.0000,16382.0000,164.0000,-213.0000,0.0000,-0.0575
31089717,101282.796875,21.360001,3.514515,0.2400,0.1900,9.5800,0.0000,0.0625,0.0625,0.0000,0.0000,0.0000,16382.0000,164.0000,-213.0000,0.0000,0.0305
31119318,101290.640625,21.360001,2.860822,0.2600,0.1800,9.5600,0.0000,0.1250,0.1250,0.0000,0.0000,0.0000,16382.0000,164.0000,-213.0000,0.0000,-0.0574
31148923,101283.867188,21.370001,3.425049,0.2400,0.1700,9.5800,0.0625,-0.0625,0.0625,0.0000,0.0000,0.0000,16382.0000,164.0000,-213.0000,0.0000,-0.1351
31180271,101283.867188,21.370001,3.425049,0.2400,0.1800,9.5800,-0.0625,0.0625,0.0625,0.0000,0.0000,0.0000,16382.0000,164.0000,-213.0000,0.0000,-0.1612
31209897,101286.718750,21.360001,3.187663,0.2400,0.1600,9.5600,0.1875,-0.0625,0.1250,0.0000,0.0000,0.0000,16382.0000,164.0000,-213.0000,0.0000,-0.1737
31239487,101273.882812,21.360001,4.256704,0.2300,0.2000,9.5600,0.1250,0.0625,0.0625,0.0000,0.0000,0.0000,16382.0000,164.0000,-213.0000,0.0000,-0.1090
31269094,101282.796875,21.360001,3.514515,0.2400,0.1900,9.5600,0.1250,-0.1875,0.0000,0.0000,0.0000,0.0000,16382.0000,164.0000,-213.0000,0.0000,0.0187
31308446,101278.882812,21.360001,3.840360,0.2400,0.1600,9.5800,0.0000,0.1875,-0.1250,0.0000,0.0000,0.0000,16382.0000,164.0000,-213.0000,0.0000,0.0353
31338950,101289.953125,21.379999,2.918260,0.2400,0.1700,9.5800,0.0000,-0.2500,0.0625,0.0000,0.0000,0.0000,16382.0000,164.0000,-213.0000,0.0000,0.0038
31369031,101284.953125,21.370001,3.334568,0.2600,0.1900,9.6000,0.1875,-0.0625,0.0000,0.0000,0.0000,0.0000,16382.0000,164.0000,-213.0000,0.0000,0.0577
31400445,101291.718750,21.370001,2.771362,0.2500,0.1800,9.5700,0.0625,-0.0625,0.0000,0.0000,0.0000,0.0000,16382.0000,164.0000,-213.0000,0.0000,-0.0071
31430022,101283.867188,21.370001,3.425049,0.2400,0.1700,9.5800,0.0625,0.0625,-0.0625,0.0000,0.0000,0.0000,16382.0000,164.0000,-213.0000,0.0000,0.0558
31459623,101284.953125,21.370001,3.334568,0.2400,0.1800,9.5700,0.0000,0.0625,-0.0625,0.0000,0.0000,0.0000,16382.0000,164.0000,-213.0000,0.0000,0.0599
31489372,101283.867188,21.370001,3.425049,0.2300,0.1900,9.5700,0.1250,0.1250,-0.0625,0.0000,0.0000,0.0000,16382.0000,164.0000,-213.0000,0.0000,0.0599
31520737,101284.953125,21.370001,3.334568,0.2500,0.1700,9.5900,0.1250,-0.0625,-0.1250,0.0000,0.0000,0.0000,16382.0000,164.0000,-213.0000,0.0000,0.0698
31550322,101292.789062,21.370001,2.681902,0.2400,0.1500,9.5800,0.0000,-0.1250,-0.0625,0.0000,0.0000,0.0000,16382.0000,164.0000,-213.0000,0.0000,-0.0728
31579946,101282.101562,21.379999,3.571957,0.2300,0.1800,9.5600,-0.1250,0.1250,-0.1250,0.0000,0.0000,0.0000,16382.0000,164.0000,-213.0000,0.0000,-0.0718
31611348,101284.953125,21.370001,3.334568,0.2400,0.2000,9.5600,0.1250,-0.1250,0.0625,0.0000,0.0000,0.0000,16382.0000,164.0000,-213.0000,0.0000,-0.1224
31640947,101283.867188,21.370001,3.425049,0.2400,0.1800,9.5700,-0.0625,0.0625,0.0000,0.0000,0.0000,0.0000,16382.0000,164.0000,-213.0000,0.0000,-0.0765
31670494,101286.023438,21.379999,3.245611,0.2400,0.1600,9.5800,0.1875,-0.0625,0.0000,0.0000,0.0000,0.0000,16382.0000,164.0000,-213.0000,0.0000,-0.0752
31709545,101283.867188,21.370001,3.425049,0.2200,0.1900,9.5800,-0.1250,0.0625,-0.0625,0.0000,0.0000,0.0000,16382.0000,164.0000,-213.0000,0.0000,-0.0099
31740027,101287.796875,21.370001,3.097692,0.2400,0.1700,9.5900,-0.1250,-0.0625,0.0000,0.0000,0.0000,0.0000,16382.0000,164.0000,-213.0000,0.0000,-0.0361
31770201,101286.023438,21.379999,3.245611,0.2500,0.1700,9.5900,0.0000,0.0625,-0.0625,0.0000,0.0000,0.0000,16382.0000,164.0000,-213.0000,0.0000,-0.0432
31800276,101286.023438,21.379999,3.245611,0.2500,0.1800,9.5700,-0.0625,0.0000,0.0625,0.0000,0.0000,0.0000,16382.0000,164.0000,-213.0000,0.0000,-0.0593
31831680,101284.953125,21.370001,3.334568,0.2400,0.1800,9.5800,-0.0625,0.0000,0.1250,0.0000,0.0000,0.0000,16382.0000,164.0000,-213.0000,0.0000,-0.0540
31861271,101283.867188,21.370001,3.425049,0.2300,0.1900,9.5900,-0.0625,0.0625,0.0625,0.0000,0.0000,0.0000,16382.0000,164.0000,-213.0000,0.0000,0.0334
31890881,101283.867188,21.370001,3.425049,0.2500,0.1800,9.5900,0.0625,0.1250,0.1250,0.0000,0.0000,0.0000,16382.0000,164.0000,-213.0000,0.0000,0.0122
31922253,101277.109375,21.370001,3.987782,0.2500,0.1700,9.5800,-0.0625,-0.1250,0.0000,0.0000,0.0000,0.0000,16382.0000,164.0000,-213.0000,0.0000,0.0662
31951824,101283.867188,21.370001,3.425049,0.2600,0.1500,9.5600,-0.1875,-0.1250,0.1250,0.0000,0.0000,0.0000,16382.0000,164.0000,-213.0000,0.0000,0.0662
31990546,101283.867188,21.370001,3.425049,0.2300,0.1700,9.5900,0.0625,-0.0625,0.1250,0.0000,0.0000,0.0000,16382.0000,164.0000,-213.0000,0.0000,0.0747
32041007,101291.718750,21.370001,2.771362,0.2400,0.1600,9.5900,0.0000,-0.1875,0.0000,0.0000,0.0000,0.0000,16382.0000,164.0000,-213.0000,0.0000,0.0075
32072104,101290.640625,21.360001,2.860822,0.2300,0.1800,9.5700,0.0000,-0.1250,0.0000,0.0000,0.0000,0.0000,16382.0000,164.0000,-213.0000,0.0000,-0.0162
32101658,101279.953125,21.370001,3.750891,0.2400,0.1900,9.5900,0.0000,0.0000,-0.0625,0.0000,0.0000,0.0000,16382.0000,164.0000,-213.0000,0.0000,0.0213
32131313,101289.570312,21.360001,2.950283,0.2500,0.1800,9.5800,0.0000,0.0625,0.0625,0.0000,0.0000,0.0000,16382.0000,164.0000,-213.0000,0.0000,0.0013
32170862,101283.867188,21.370001,3.425049,0.2600,0.1700,9.5900,0.0000,0.1250,0.0625,0.0000,0.0000,0.0000,16382.0000,164.0000,-213.0000,0.0000,0.0008
32201236,101283.867188,21.370001,3.425049,0.2500,0.1800,9.5800,0.0625,0.1875,0.0000,0.0000,0.0000,0.0000,16382.0000,164.0000,-213.0000,0.0000,0.0044
32231362,101287.796875,21.370001,3.097692,0.2500,0.1900,9.5800,0.0625,0.0625,0.0625,0.0000,0.0000,0.0000,16382.0000,164.0000,-213.0000,0.0000,-0.0283
32262780,101287.796875,21.370001,3.097692,0.2300,0.1900,9.5700,0.0625,0.0625,0.0625,0.0000,0.0000,0.0000,16382.0000,164.0000,-213.0000,0.0000,-0.0977
32292386,101280.648438,21.350000,3.693449,0.2600,0.1800,9.6100,-0.0625,-0.0625,0.0000,0.0000,0.0000,0.0000,16382.0000,164.0000,-213.0000,0.0000,-0.0763
32321976,101283.867188,21.370001,3.425049,0.2300,0.1800,9.5900,-0.0625,-0.0625,0.0000,0.0000,0.0000,0.0000,16382.0000,164.0000,-213.0000,0.0000,-0.0763
32351788,101282.796875,21.360001,3.514515,0.2300,0.1800,9.5800,-0.0625,0.1875,0.0000,0.0000,0.0000,0.0000,16382.0000,164.0000,-213.0000,0.0000,-0.0186
32383160,101283.867188,21.370001,3.425049,0.2400,0.1700,9.5800,-0.1250,0.0000,0.0000,0.0000,0.0000,0.0000,16382.0000,164.0000,-213.0000,0.0000,0.0443
32412813,101286.718750,21.360001,3.187663,0.2300,0.1800,9.6200,0.0000,-0.0625,0.0000,0.0000,0.0000,0.0000,16382.0000,164.0000,-213.0000,0.0000,0.0076
32442358,101287.796875,21.370001,3.097692,0.2300,0.1900,9.5700,-0.1875,0.1250,-0.0625,0.0000,0.0000,0.0000,16382.0000,164.0000,-213.0000,0.0000,0.0354
32473740,101284.953125,21.370001,3.334568,0.2300,0.1800,9.5900,-0.1250,-0.0625,0.0000,0.0000,0.0000,0.0000,16382.0000,164.0000,-213.0000,0.0000,0.0282
32503383,101291.718750,21.370001,2.771362,0.2300,0.1800,9.5500,0.0000,0.0000,0.0000,0.0000,0.0000,0.0000,16382.0000,164.0000,-213.0000,0.0000,-0.0241
32532989,101283.867188,21.370001,3.425049,0.2200,0.1700,9.5700,0.0000,0.0625,0.1250,0.0000,0.0000,0.0000,16382.0000,164.0000,-213.0000,0.0000,-0.0175
32562590,101290.640625,21.360001,2.860822,0.2400,0.2000,9.5700,-0.0625,0.1250,-0.1250,0.0000,0.0000,0.0000,16382.0000,164.0000,-213.0000,0.0000,-0.0299
32601918,101287.796875,21.370001,3.097692,0.2300,0.1800,9.5800,0.0000,0.0000,0.0000,0.0000,0.0000,0.0000,16382.0000,164.0000,-213.0000,0.0000,-0.0848
32632409,101295.640625,21.370001,2.444534,0.2500,0.1700,9.6000,-0.0625,0.0000,-0.0625,0.0000,0.0000,0.0000,16382.0000,164.0000,-213.0000,0.0000,-0.1745
32662532,101290.640625,21.360001,2.860822,0.2500,0.1700,9.5900,-0.1250,-0.0625,0.0625,0.0000,0.0000,0.0000,16382.0000,164.0000,-213.0000,0.0000,-0.2268
32693943,101277.796875,21.360001,3.930846,0.2400,0.1800,9.5800,-0.0625,-0.1250,0.0000,0.0000,0.0000,0.0000,16382.0000,164.0000,-213.0000,0.0000,-0.1976
32723494,101281.718750,21.360001,3.603982,0.2300,0.2000,9.5700,0.0000,-0.0625,0.0000,0.0000,0.0000,0.0000,16382.0000,164.0000,-213.0000,0.0000,-0.1596
32753089,101281.718750,21.360001,3.603982,0.2300,0.1800,9.6000,0.0000,0.0000,0.0000,0.0000,0.0000,0.0000,16382.0000,164.0000,-213.0000,0.0000,-0.1125
32784407,101291.718750,21.370001,2.771362,0.2700,0.1800,9.5800,0.0000,0.1250,-0.0625,0.0000,0.0000,0.0000,16382.0000,164.0000,-213.0000,0.0000,-0.1605
32814098,101286.718750,21.360001,3.187663,0.2300,0.1800,9.5900,0.0000,0.1250,0.0000,0.0000,0.0000,0.0000,16382.0000,164.0000,-213.0000,0.0000,-0.0975
32843655,101283.867188,21.370001,3.425049,0.2500,0.1700,9.6000,-0.0625,0.0625,0.0000,0.0000,0.0000,0.0000,16382.0000,164.0000,-213.0000,0.0000,-0.0957
32873318,101282.796875,21.360001,3.514515,0.2300,0.2000,9.6000,0.0000,0.0000,0.0625,0.0000,0.0000,0.0000,16382.0000,164.0000,-213.0000,0.0000,-0.0238
32904666,101290.640625,21.360001,2.860822,0.2300,0.1900,9.6000,0.0625,0.0625,-0.1250,0.0000,0.0000,0.0000,16382.0000,164.0000,-213.0000,0.0000,-0.0464
32934313,101288.867188,21.370001,3.008738,0.2300,0.1700,9.5900,0.0625,-0.0625,-0.0625,0.0000,0.0000,0.0000,16382.0000,164.0000,-213.0000,0.0000,0.0166
32963941,101292.789062,21.370001,2.681902,0.2600,0.1500,9.5700,-0.1875,-0.1250,0.0625,0.0000,0.0000,0.0000,16382.0000,164.0000,-213.0000,0.0000,0.0005
33003045,101276.031250,21.370001,4.077761,0.2600,0.1700,9.5900,0.0000,0.0625,-0.0625,0.0000,0.0000,0.0000,16382.0000,164.0000,-213.0000,0.0000,0.0021
33033542,101273.882812,21.360001,4.256704,0.2400,0.1900,9.5900,-0.2500,0.1250,0.0000,0.0000,0.0000,0.0000,16382.0000,164.0000,-213.0000,0.0000,0.0489
33063661,101279.953125,21.370001,3.750891,0.2600,0.1700,9.5900,-0.0625,-0.0625,0.0000,0.0000,0.0000,0.0000,16382.0000,164.0000,-213.0000,0.0000,0.0571
33093773,101274.960938,21.360001,4.166724,0.2400,0.1800,9.5500,-0.0625,-0.1250,0.0000,0.0000,0.0000,0.0000,16382.0000,164.0000,-213.0000,0.0000,0.1800
33125146,101283.867188,21.370001,3.425049,0.2300,0.1800,9.5800,-0.0625,0.0000,0.0000,0.0000,0.0000,0.0000,16382.0000,164.0000,-213.0000,0.0000,0.1889
33154769,101283.867188,21.370001,3.425049,0.2500,0.1600,9.5800,-0.0625,-0.0625,0.0625,0.0000,0.0000,0.0000,16382.0000,164.0000,-213.0000,0.0000,0.1918
33184343,101281.718750,21.360001,3.603982,0.2500,0.1700,9.5900,-0.1250,0.0000,0.0000,0.0000,0.0000,0.0000,16382.0000,164.0000,-213.0000,0.0000,0.1954
33215690,101283.867188,21.370001,3.425049,0.2400,0.1900,9.6000,0.0000,0.0000,0.0000,0.0000,0.0000,0.0000,16382.0000,164.0000,-213.0000,0.0000,0.2518
33245299,101283.867188,21.370001,3.425049,0.2400,0.1700,9.6000,0.0625,0.1250,0.0625,0.0000,0.0000,0.0000,16382.0000,164.0000,-213.0000,0.0000,0.2898
33274967,101282.796875,21.360001,3.514515,0.2500,0.1600,9.6000,0.0625,0.0625,0.1250,0.0000,0.0000,0.0000,16382.0000,164.0000,-213.0000,0.0000,0.3713
33306272,101291.718750,21.370001,2.771362,0.2600,0.1700,9.6000,-0.0625,0.0625,0.0625,0.0000,0.0000,0.0000,16382.0000,164.0000,-213.0000,0.0000,0.2472
33335897,101276.031250,21.370001,4.077761,0.2500,0.1700,9.6100,-0.1250,-0.0625,0.0625,0.0000,0.0000,0.0000,16382.0000,164.0000,-213.0000,0.0000,0.2127
33365491,101291.718750,21.370001,2.771362,0.2500,0.1800,9.5500,-0.0625,-0.1250,0.0625,0.0000,0.0000,0.0000,16382.0000,163.0000,-213.0000,0.0000,0.1242
33395096,101288.867188,21.370001,3.008738,0.2600,0.1500,9.5300,-0.5625,-0.1250,0.0625,0.0000,0.0000,0.0000,16382.0000,163.0000,-213.0000,0.0000,0.0149
33434299,101287.796875,21.370001,3.097692,0.2200,0.1800,9.5900,-0.2500,0.0625,0.0000,0.0000,0.0000,0.0000,16382.0000,163.0000,-213.0000,0.0000,-0.0113
33464680,101283.867188,21.370001,3.425049,0.2500,0.1600,9.5800,0.0000,-0.1250,-0.0625,0.0000,0.0000,0.0000,16382.0000,163.0000,-213.0000,0.0000,-0.0113
33494830,101287.796875,21.370001,3.097692,0.2500,0.1700,9.5800,0.0000,0.1250,0.0000,0.0000,0.0000,0.0000,16382.0000,163.0000,-213.0000,0.0000,-0.0441
33526167,101289.953125,21.379999,2.918260,0.2300,0.1800,9.5800,-0.0625,0.1875,0.0625,0.0000,0.0000,0.0000,16382.0000,163.0000,-213.0000,0.0000,-0.0846
33565027,101281.031250,21.370001,3.661424,0.2300,0.1600,9.5900,0.1250,0.0625,0.0625,0.0000,0.0000,0.0000,16382.0000,163.0000,-213.0000,0.0000,-0.0657
33616067,101283.867188,21.370001,3.425049,0.2400,0.1700,9.5700,0.1250,-0.1250,0.0000,0.0000,0.0000,0.0000,16382.0000,163.0000,-213.0000,0.0000,-0.0878
33645699,101288.867188,21.370001,3.008738,0.2600,0.1600,9.6000,0.1250,0.1250,0.0000,0.0000,0.0000,0.0000,16382.0000,163.0000,-213.0000,0.0000,-0.0670
33677135,101291.718750,21.370001,2.771362,0.1800,0.0100,9.4800,-0.0625,0.1875,-11.6250,0.0000,0.0000,0.0000,16382.0000,163.0000,-213.0000,-19.0000,-0.1780
33706692,101282.796875,21.360001,3.514515,0.2600,0.1200,9.5700,0.0625,-0.0625,-9.6875,0.0000,0.0000,0.0000,16382.0000,166.0000,-212.0000,-83.0000,-0.1150
33736278,101283.867188,21.370001,3.425049,0.3700,0.6100,9.6200,0.1875,-0.1250,-7.8125,0.0000,0.0000,0.0000,16381.0000,167.0000,-212.0000,-116.0000,-0.0734
33767682,101282.796875,21.360001,3.514515,0.2400,0.1900,9.6100,0.0000,0.0000,0.1250,0.0000,0.0000,0.0000,16381.0000,169.0000,-212.0000,-127.0000,-0.0335
33797300,101289.953125,21.379999,2.918260,0.2300,0.1700,9.5600,-0.1250,-0.1250,0.0000,0.0000,0.0000,0.0000,16381.0000,169.0000,-212.0000,-127.0000,-0.0806
33826927,101287.796875,21.370001,3.097692,0.2400,0.1800,9.5800,0.2500,-0.0625,0.1250,0.0000,0.0000,0.0000,16381.0000,169.0000,-212.0000,-127.0000,-0.0806
33865533,101286.023438,21.379999,3.245611,0.2400,0.1900,9.5800,-0.1250,0.0000,0.0000,0.0000,0.0000,0.0000,16381.0000,168.0000,-212.0000,-127.0000,-0.0389
33895834,101289.953125,21.379999,2.918260,0.2500,0.1700,9.5800,0.0000,0.1875,0.0625,0.0000,0.0000,0.0000,16381.0000,168.0000,-212.0000,-127.0000,-0.1031
33925955,101281.031250,21.370001,3.661424,0.2600,0.1600,9.5900,0.1250,0.1250,-0.0625,0.0000,0.0000,0.0000,16381.0000,168.0000,-212.0000,-127.0000,-0.0824
33956088,101282.796875,21.360001,3.514515,0.2900,-0.0200,9.5800,0.0625,0.1875,-0.0625,0.0000,0.0000,0.0000,16381.0000,168.0000,-212.0000,-127.0000,-0.0336
33987481,101282.101562,21.379999,3.571957,0.1800,0.3600,9.5900,0.3125,0.3125,-3.3125,0.0000,0.0000,0.0000,16381.0000,165.0000,-213.0000,-134.0000,0.0388
34017089,101287.796875,21.370001,3.097692,0.2200,0.1800,9.6000,0.1250,0.3125,-0.8750,0.0000,0.0000,0.0000,16381.0000,165.0000,-213.0000,-141.0000,-0.0029
34046685,101286.023438,21.379999,3.245611,0.2200,0.1800,9.5800,0.1875,0.1875,-0.3125,0.0000,0.0000,0.0000,16381.0000,165.0000,-213.0000,-142.0000,-0.0190
34078052,101283.867188,21.370001,3.425049,0.2400,0.1800,9.5900,0.0625,0.2500,0.0625,0.0000,0.0000,0.0000,16381.0000,165.0000,-213.0000,-142.0000,-0.0411
34107707,101287.796875,21.370001,3.097692,0.2300,0.2000,9.6100,0.1875,0.2500,-0.1250,0.0000,0.0000,0.0000,16381.0000,165.0000,-213.0000,-142.0000,-0.0166
34137285,101278.179688,21.379999,3.898820,0.2400,0.1800,9.5800,0.0625,0.0000,0.0000,0.0000,0.0000,0.0000,16381.0000,165.0000,-213.0000,-142.0000,0.0428
34168607,101283.867188,21.370001,3.425049,0.2300,0.1500,9.5900,-0.0625,0.1875,0.0625,0.0000,0.0000,0.0000,16381.0000,165.0000,-213.0000,-142.0000,0.0542
34198202,101287.796875,21.370001,3.097692,0.2400,0.1800,9.5600,-0.0625,0.1250,0.0000,0.0000,0.0000,0.0000,16381.0000,165.0000,-213.0000,-142.0000,0.0591
34227786,101288.867188,21.370001,3.008738,0.2400,0.2000,9.6000,0.1875,0.1250,-0.0625,0.0000,0.0000,0.0000,16381.0000,165.0000,-213.0000,-142.0000,-0.0092
34257412,101286.023438,21.379999,3.245611,0.2400,0.1900,9.5800,-0.0625,0.3125,-0.1250,0.0000,0.0000,0.0000,16381.0000,165.0000,-213.0000,-142.0000,-0.0223
34296663,101280.328125,21.389999,3.719883,0.3200,0.2500,9.5600,0.0625,0.0625,-2.4375,0.0000,0.0000,0.0000,16381.0000,165.0000,-213.0000,-154.0000,-0.0099
34326937,101284.953125,21.370001,3.334568,0.2400,0.2000,9.6000,0.0625,0.1875,-3.9375,0.0000,0.0000,0.0000,16381.0000,165.0000,-212.0000,-174.0000,0.0192
34357062,101289.953125,21.379999,2.918260,0.1800,0.2300,9.5900,0.0625,0.0625,-3.5625,0.0000,0.0000,0.0000,16381.0000,165.0000,-212.0000,-192.0000,-0.0165
34388468,101286.023438,21.379999,3.245611,0.2500,0.2000,9.5400,0.2500,1.0625,-0.6250,0.0000,0.0000,0.0000,16381.0000,166.0000,-210.0000,-198.0000,-0.0356
34418080,101293.867188,21.379999,2.592444,0.2300,0.1900,9.5500,2.7500,3.1875,-0.7500,0.0000,0.0000,0.0000,16381.0000,171.0000,-199.0000,-198.0000,-0.0694
34447693,101278.179688,21.379999,3.898820,0.0900,0.1800,9.7300,3.5625,5.1250,-4.3125,0.0000,0.0000,0.0000,16381.0000,186.0000,-176.0000,-213.0000,-0.0771
34479111,101286.023438,21.379999,3.245611,0.1400,-0.1400,9.6000,-1.1250,5.1250,-8.3750,0.0000,0.0000,0.0000,16380.0000,189.0000,-157.0000,-239.0000,-0.1028
34508724,101293.867188,21.379999,2.592444,-0.2300,-0.6600,9.6300,-1.8125,4.4375,-14.7500,0.0000,0.0000,0.0000,16380.0000,187.0000,-139.0000,-289.0000,-0.1450
34538317,101284.953125,21.370001,3.334568,0.2100,0.0000,9.6400,-2.1875,1.7500,-21.7500,0.0000,0.0000,0.0000,16378.0000,177.0000,-124.0000,-377.0000,-0.1254
34567896,101289.953125,21.379999,2.918260,0.1900,0.4500,10.6000,-12.8750,-3.3125,-21.5000,0.0000,0.0000,0.0000,16376.0000,144.0000,-128.0000,-467.0000,-0.1350
34599317,101286.023438,21.379999,3.245611,-1.1500,1.3100,10.2900,3.3125,-26.6875,-6.5000,0.0000,0.0000,0.0000,16374.0000,118.0000,-200.0000,-525.0000,-0.1622
34628890,101281.031250,21.370001,3.661424,0.5800,0.7000,9.4400,18.6875,-28.8750,12.1875,0.0000,0.0000,0.0000,16373.0000,176.0000,-329.0000,-482.0000,-0.1277
34658494,101287.796875,21.370001,3.097692,1.3300,0.5300,9.2400,28.6250,-21.5625,18.5000,0.0000,0.0000,0.0000,16371.0000,283.0000,-432.0000,-414.0000,-0.0884
34697770,101282.101562,21.379999,3.571957,0.4500,-0.2400,10.1100,-23.3750,-14.5625,11.3750,0.0000,0.0000,0.0000,16371.0000,228.0000,-522.0000,-343.0000,-0.0587
34728069,101289.953125,21.379999,2.918260,-0.1500,0.7100,9.5100,-20.6250,-12.6250,-9.2500,0.0000,0.0000,0.0000,16369.0000,144.0000,-566.0000,-374.0000,-0.0160
34758396,101284.953125,21.370001,3.334568,1.2600,-0.4800,8.6700,4.1875,1.3125,-0.2500,0.0000,0.0000,0.0000,16368.0000,160.0000,-589.0000,-388.0000,-0.0670
34789749,101286.023438,21.379999,3.245611,0.6000,0.2200,9.6900,-0.5625,22.1250,2.5625,0.0000,0.0000,0.0000,16370.0000,185.0000,-519.0000,-379.0000,-0.0634
34819370,101277.109375,21.370001,3.987782,-0.1300,-0.0400,9.9000,-8.6875,16.4375,2.0625,0.0000,0.0000,0.0000,16373.0000,155.0000,-437.0000,-366.0000,0.0649
34848983,101286.023438,21.379999,3.245611,0.7800,-0.1000,9.2300,5.6875,11.8750,-10.3750,0.0000,0.0000,0.0000,16374.0000,162.0000,-389.0000,-391.0000,0.0613
34880371,101291.023438,21.379999,2.829308,0.8400,0.1700,9.8600,-3.3125,24.0625,-13.3125,0.0000,0.0000,0.0000,16374.0000,166.0000,-303.0000,-446.0000,0.0513
34909989,101286.023438,21.379999,3.245611,-0.3300,0.2400,10.2900,2.0625,15.0000,-6.6250,0.0000,0.0000,0.0000,16375.0000,171.0000,-221.0000,-481.0000,0.0679
34939550,101293.867188,21.379999,2.592444,0.0400,0.2500,9.7500,5.0625,-1.9375,-8.4375,0.0000,0.0000,0.0000,16374.0000,188.0000,-209.0000,-512.0000,-0.0354
34969123,101277.109375,21.370001,3.987782,0.6400,0.2000,9.6400,1.6250,-1.0625,-6.7500,0.0000,0.0000,0.0000,16372.0000,202.0000,-220.0000,-543.0000,0.0340
35000514,101286.023438,21.379999,3.245611,0.2000,0.2200,10.1900,-1.0000,-2.2500,-6.4375,0.0000,0.0000,0.0000,16371.0000,203.0000,-222.0000,-571.0000,-0.0016
35030140,101286.023438,21.379999,3.245611,-0.3300,0.2800,9.8200,-5.0000,-14.3750,2.3750,0.0000,0.0000,0.0000,16371.0000,189.0000,-266.0000,-573.0000,0.0348
35059774,101287.101562,21.379999,3.155640,0.2100,-0.3100,9.0100,3.7500,-11.6875,-2.3125,0.0000,0.0000,0.0000,16370.0000,184.0000,-325.0000,-573.0000,0.0157
35098718,101286.023438,21.379999,3.245611,0.5700,-0.1600,9.7700,4.1875,5.1250,-7.7500,0.0000,0.0000,0.0000,16368.0000,209.0000,-315.0000,-612.0000,0.0092
35139017,101284.953125,21.370001,3.334568,0.2700,0.2400,9.8200,-2.4375,5.5625,-17.5000,0.0000,0.0000,0.0000,16366.0000,193.0000,-278.0000,-692.0000,-0.0496
35190500,101286.023438,21.379999,3.245611,0.3400,0.2700,9.3000,2.4375,5.1875,-10.1875,0.0000,0.0000,0.0000,16361.0000,224.0000,-275.0000,-783.0000,-0.0460
35221621,101281.031250,21.370001,3.661424,0.2700,0.4300,9.9500,0.5625,8.0000,-12.3750,0.0000,0.0000,0.0000,16360.0000,225.0000,-241.0000,-830.0000,0.0241
35251152,101278.179688,21.379999,3.898820,0.0100,0.7000,9.9300,2.8125,1.2500,-9.6250,0.0000,0.0000,0.0000,16357.0000,237.0000,-226.0000,-877.0000,0.0669
35280776,101287.101562,21.379999,3.155640,0.8800,-1.4300,9.9500,-1.5000,-3.7500,-3.1250,0.0000,0.0000,0.0000,16356.0000,241.0000,-237.0000,-900.0000,0.1304
35310318,101293.867188,21.379999,2.592444,0.9500,0.3000,9.2400,-4.3125,-2.0000,-18.0000,0.0000,0.0000,0.0000,16352.0000,283.0000,-261.0000,-954.0000,0.0075
35341707,101287.101562,21.379999,3.155640,0.5000,0.3000,9.2100,-13.7500,-1.1250,-4.2500,0.0000,0.0000,0.0000,16350.0000,246.0000,-265.0000,-989.0000,0.0057
35371333,101286.023438,21.379999,3.245611,0.0300,-0.2000,9.0700,4.1875,-3.6250,-5.2500,0.0000,0.0000,0.0000,16349.0000,227.0000,-273.0000,-1006.0000,-0.0009
35400959,101287.101562,21.379999,3.155640,0.4200,-0.2800,8.9100,18.4375,-3.9375,-12.8125,0.0000,0.0000,0.0000,16345.0000,290.0000,-296.0000,-1054.0000,-0.0020
35432329,101291.023438,21.379999,2.829308,0.2200,-0.5400,9.0600,-1.8750,3.3750,-11.5625,0.0000,0.0000,0.0000,16341.0000,312.0000,-292.0000,-1102.0000,-0.0353
35462000,101278.179688,21.379999,3.898820,0.4400,-0.4300,9.4900,-8.1875,4.0000,-17.5000,0.0000,0.0000,0.0000,16338.0000,286.0000,-270.0000,-1164.0000,0.0015
35491580,101289.953125,21.379999,2.918260,0.2200,0.1100,9.5400,-7.4375,2.8750,-19.8125,0.0000,0.0000,0.0000,16333.0000,255.0000,-253.0000,-1246.0000,-0.0164
35530051,101288.171875,21.389999,3.066685,0.3700,-0.0800,9.5000,2.3125,1.2500,-20.3750,0.0000,0.0000,0.0000,16324.0000,261.0000,-243.0000,-1356.0000,-0.0669
35560348,101283.179688,21.379999,3.482490,0.4000,-0.5200,9.4300,-1.1875,-1.6875,-19.4375,0.0000,0.0000,0.0000,16317.0000,253.0000,-245.0000,-1438.0000,-0.1067
35590502,101284.250000,21.389999,3.393025,0.2300,-0.2600,9.0500,-6.3750,-3.3750,-28.5000,0.0000,0.0000,0.0000,16308.0000,229.0000,-255.0000,-1540.0000,-0.0889
35621877,101288.171875,21.389999,3.066685,0.4500,0.1800,9.1000,0.4375,3.4375,-32.5625,0.0000,0.0000,0.0000,16294.0000,229.0000,-251.0000,-1677.0000,-0.0379
35651478,101287.101562,21.379999,3.155640,0.3000,0.2200,9.5500,1.6875,7.4375,-26.3125,0.0000,0.0000,0.0000,16282.0000,238.0000,-221.0000,-1793.0000,-0.0325
35681133,101292.093750,21.389999,2.739848,0.1800,0.6000,9.3900,-1.0000,4.0625,-24.5000,0.0000,0.0000,0.0000,16271.0000,242.0000,-198.0000,-1897.0000,-0.0759
35710934,101286.023438,21.379999,3.245611,0.2900,0.0300,9.3400,-10.1875,5.2500,-22.3125,0.0000,0.0000,0.0000,16260.0000,212.0000,-174.0000,-1990.0000,-0.0539
35742362,101287.101562,21.379999,3.155640,0.3200,-0.7400,9.2600,-5.1250,5.1875,-28.4375,0.0000,0.0000,0.0000,16248.0000,189.0000,-146.0000,-2094.0000,-0.0159
35771936,101286.023438,21.379999,3.245611,0.1100,0.2500,9.2400,-5.7500,5.0625,-40.6250,0.0000,0.0000,0.0000,16228.0000,175.0000,-122.0000,-2248.0000,-0.0841
35801585,101292.789062,21.370001,2.681902,0.1600,0.2700,9.5400,-12.6250,6.8125,-36.9375,0.0000,0.0000,0.0000,16205.0000,136.0000,-89.0000,-2407.0000,-0.1012
35832965,101283.867188,21.370001,3.425049,-0.0300,-0.2600,9.5600,-4.0625,4.9375,-37.5000,0.0000,0.0000,0.0000,16183.0000,108.0000,-58.0000,-2558.0000,-0.0690
35862532,101286.023438,21.379999,3.245611,-0.3700,0.1100,9.3200,6.6250,1.4375,-41.7500,0.0000,0.0000,0.0000,16156.0000,124.0000,-50.0000,-2723.0000,-0.0832
35892180,101286.023438,21.379999,3.245611,-0.1300,0.7800,8.8700,2.8750,6.1250,-26.9375,0.0000,0.0000,0.0000,16131.0000,147.0000,-36.0000,-2862.0000,-0.0961
35931015,101292.093750,21.389999,2.739848,0.3000,-0.1600,9.9700,-7.8125,19.0625,-16.0000,0.0000,0.0000,0.0000,16115.0000,133.0000,60.0000,-2955.0000,-0.1253
35961459,101289.953125,21.379999,2.918260,-0.2400,0.1100,10.6400,-7.2500,20.1875,-28.5625,0.0000,0.0000,0.0000,16096.0000,123.0000,160.0000,-3052.0000,-0.1425
35991654,101282.101562,21.379999,3.571957,-0.5400,0.1900,9.8500,5.6875,-2.9375,-30.1250,0.0000,0.0000,0.0000,16071.0000,146.0000,179.0000,-3179.0000,-0.0788
36023059,101286.023438,21.379999,3.245611,0.1000,-0.5800,9.1600,4.9375,-10.4375,-24.3125,0.0000,0.0000,0.0000,16050.0000,171.0000,132.0000,-3282.0000,-0.0658
36052690,101293.867188,21.379999,2.592444,-0.0200,0.8200,9.5300,-11.2500,-0.3125,-35.6250,0.0000,0.0000,0.0000,16024.0000,141.0000,123.0000,-3412.0000,-0.1090
36082259,101293.867188,21.379999,2.592444,-0.3400,1.1000,9.9600,-7.6250,4.1250,-31.1875,0.0000,0.0000,0.0000,15994.0000,103.0000,147.0000,-3549.0000,-0.1743
36112138,101284.953125,21.370001,3.334568,-0.4100,0.1100,14.1000,12.5000,-3.1875,-19.1250,0.0000,0.0000,0.0000,15973.0000,119.0000,143.0000,-3644.0000,-0.1091
36143486,101278.179688,21.379999,3.898820,0.1800,-0.6800,9.7000,8.8750,-16.6875,-19.6875,0.0000,0.0000,0.0000,15956.0000,156.0000,54.0000,-3715.0000,-0.0813
36173112,101284.953125,21.370001,3.334568,-0.0800,0.4700,9.6300,-7.3125,-9.6250,-25.3125,0.0000,0.0000,0.0000,15934.0000,140.0000,10.0000,-3812.0000,-0.0742
36202737,101286.023438,21.379999,3.245611,-0.1300,0.7500,9.4000,-5.6250,-7.7500,-22.0625,0.0000,0.0000,0.0000,15910.0000,96.0000,-15.0000,-3910.0000,-0.0659
36234137,101286.023438,21.379999,3.245611,0.3500,0.6900,9.9300,6.8750,-4.3750,-19.1250,0.0000,0.0000,0.0000,15890.0000,103.0000,-42.0000,-3990.0000,-0.0183
36263757,101288.867188,21.370001,3.008738,0.6100,0.0300,9.9300,-2.7500,1.4375,-13.5000,0.0000,0.0000,0.0000,15875.0000,111.0000,-45.0000,-4051.0000,0.0021
36293367,101282.101562,21.379999,3.571957,-0.3000,-0.5700,9.3600,-7.1875,5.1250,-18.3750,0.0000,0.0000,0.0000,15859.0000,87.0000,-19.0000,-4114.0000,-0.0110
36332187,101284.953125,21.370001,3.334568,-0.0600,-1.0500,9.5200,0.5625,-0.8125,-23.5000,0.0000,0.0000,0.0000,15827.0000,80.0000,-15.0000,-4237.0000,-0.0021
36362721,101286.023438,21.379999,3.245611,0.4700,-1.1600,9.6800,2.6250,-4.2500,-36.3125,0.0000,0.0000,0.0000,15792.0000,85.0000,-36.0000,-4364.0000,0.0632
36392817,101283.867188,21.370001,3.425049,0.0200,-0.8300,9.5800,-0.6250,-4.6250,-44.3750,0.0000,0.0000,0.0000,15744.0000,76.0000,-50.0000,-4534.0000,0.1577
36424219,101282.101562,21.379999,3.571957,-0.2800,-0.0400,9.4800,-11.0625,-8.1875,-58.8125,0.0000,0.0000,0.0000,15681.0000,28.0000,-66.0000,-4747.0000,0.1749
36453773,101289.953125,21.379999,2.918260,0.2800,0.1700,9.5400,-11.3125,-13.2500,-60.5000,0.0000,0.0000,0.0000,15605.0000,-31.0000,-98.0000,-4990.0000,0.0751
36483381,101284.953125,21.370001,3.334568,0.1900,0.3000,9.4600,-12.0000,-13.1250,-60.0625,0.0000,0.0000,0.0000,15528.0000,-92.0000,-138.0000,-5224.0000,0.0733
36513158,101284.953125,21.370001,3.334568,-0.2700,1.2700,9.3800,-7.9375,-9.6250,-59.1875,0.0000,0.0000,0.0000,15444.0000,-145.0000,-168.0000,-5464.0000,0.0674
36544593,101279.953125,21.370001,3.750891,0.3000,0.4200,9.3900,-15.5625,-15.8750,-35.3125,0.0000,0.0000,0.0000,15382.0000,-204.0000,-205.0000,-5634.0000,0.1226
36574172,101286.023438,21.379999,3.245611,1.1100,-1.3600,9.2900,-2.2500,-13.6250,-42.0625,0.0000,0.0000,0.0000,15328.0000,-263.0000,-257.0000,-5774.0000,0.1463
36603762,101282.101562,21.379999,3.571957,-0.0200,0.6300,9.0900,3.1250,8.6250,-61.1250,0.0000,0.0000,0.0000,15243.0000,-239.0000,-272.0000,-5996.0000,0.1398
36635197,101283.867188,21.370001,3.425049,0.0000,0.2300,8.5400,-18.5000,2.9375,-41.7500,0.0000,0.0000,0.0000,15167.0000,-261.0000,-253.0000,-6186.0000,0.1434
36664794,101293.867188,21.379999,2.592444,0.3000,-0.8700,8.9800,-4.9375,20.8750,-35.9375,0.0000,0.0000,0.0000,15112.0000,-287.0000,-174.0000,-6320.0000,0.0912
36694452,101277.109375,21.370001,3.987782,0.5100,0.0400,9.8700,11.3750,33.8750,-48.5000,0.0000,0.0000,0.0000,15039.0000,-203.0000,-78.0000,-6497.0000,0.1344
36763553,101289.953125,21.379999,2.918260,0.1100,-0.6400,10.0300,-4.3125,13.5000,-23.2500,0.0000,0.0000,0.0000,14918.0000,-129.0000,152.0000,-6771.0000,0.0756
36793878,101286.023438,21.379999,3.245611,-0.1200,0.1700,9.7800,1.8750,2.4375,-29.7500,0.0000,0.0000,0.0000,14869.0000,-118.0000,164.0000,-6878.0000,0.1166
36824014,101282.101562,21.379999,3.571957,0.1500,-0.6700,9.2200,-0.6250,0.6250,-20.5000,0.0000,0.0000,0.0000,14827.0000,-119.0000,166.0000,-6967.0000,0.1469
36855426,101293.867188,21.379999,2.592444,0.5700,-1.6600,9.3200,3.4375,7.9375,-31.6875,0.0000,0.0000,0.0000,14781.0000,-105.0000,182.0000,-7066.0000,0.0840
36885026,101278.179688,21.379999,3.898820,0.2100,-0.7400,9.9700,6.4375,14.2500,-49.6875,0.0000,0.0000,0.0000,14701.0000,-57.0000,215.0000,-7230.0000,0.0726
36914649,101292.093750,21.389999,2.739848,-0.2800,0.2800,9.8600,-7.0000,8.1250,-50.5000,0.0000,0.0000,0.0000,14603.0000,-45.0000,259.0000,-7425.0000,0.0304
36944347,101277.109375,21.370001,3.987782,-0.2800,0.0700,9.9000,-8.6250,-2.3750,-32.8125,0.0000,0.0000,0.0000,14530.0000,-86.0000,282.0000,-7566.0000,0.0571
36975718,101287.101562,21.379999,3.155640,0.3200,-0.4900,9.6500,0.5000,-4.6250,-32.2500,0.0000,0.0000,0.0000,14471.0000,-112.0000,261.0000,-7677.0000,0.0302
37005328,101280.328125,21.389999,3.719883,-0.2500,-0.2000,9.5500,8.8750,0.5000,-37.9375,0.0000,0.0000,0.0000,14401.0000,-90.0000,242.0000,-7809.0000,0.1251
37034925,101278.179688,21.379999,3.898820,-0.4900,0.7200,9.5700,3.0625,-4.3125,-37.1875,0.0000,0.0000,0.0000,14324.0000,-78.0000,223.0000,-7950.0000,0.1162
37066351,101286.023438,21.379999,3.245611,0.3100,0.4400,9.6300,15.3125,-0.3125,-22.8750,0.0000,0.0000,0.0000,14269.0000,-34.0000,192.0000,-8049.0000,0.1424
37095971,101289.953125,21.379999,2.918260,0.7300,-0.6500,9.6100,13.1875,0.1875,-23.0000,0.0000,0.0000,0.0000,14225.0000,16.0000,163.0000,-8127.0000,0.1126
37125527,101288.171875,21.389999,3.066685,-0.5000,0.0000,9.6600,5.1875,-1.2500,-31.1250,0.0000,0.0000,0.0000,14166.0000,43.0000,143.0000,-8231.0000,0.0704
37164510,101292.093750,21.389999,2.739848,-0.2500,-0.0300,9.3300,19.1875,-1.1875,-29.7500,0.0000,0.0000,0.0000,14080.0000,112.0000,94.0000,-8377.0000,0.0982
37194901,101282.101562,21.379999,3.571957,0.4000,0.2200,9.9500,31.3125,-2.3125,-27.0000,0.0000,0.0000,0.0000,14020.0000,214.0000,24.0000,-8475.0000,0.0554
37225053,101286.023438,21.379999,3.245611,0.1000,-0.0800,9.6600,10.1250,-5.0000,-32.5000,0.0000,0.0000,0.0000,13953.0000,247.0000,-17.0000,-8584.0000,0.1042
37256433,101289.953125,21.379999,2.918260,0.0900,0.3400,9.4700,11.6250,-7.8750,-37.5625,0.0000,0.0000,0.0000,13873.0000,273.0000,-66.0000,-8712.0000,-0.0063
37286060,101279.257812,21.379999,3.808843,-0.3700,0.3600,9.6300,0.8125,-1.9375,-39.3125,0.0000,0.0000,0.0000,13785.0000,274.0000,-77.0000,-8851.0000,0.0477
37315682,101293.867188,21.379999,2.592444,-0.1000,-0.4700,9.5400,-1.1250,-1.6250,-37.8125,0.0000,0.0000,0.0000,13702.0000,270.0000,-80.0000,-8979.0000,-0.0537
37345444,101289.953125,21.379999,2.918260,-0.3100,-0.2100,9.5600,-0.0625,-1.2500,-61.8750,0.0000,0.0000,0.0000,13577.0000,265.0000,-76.0000,-9166.0000,-0.1453
37376838,101286.023438,21.379999,3.245611,0.0000,1.5200,9.6000,0.4375,-1.8125,-38.1875,0.0000,0.0000,0.0000,13461.0000,264.0000,-81.0000,-9336.0000,-0.1565
37406444,101293.171875,21.389999,2.650388,0.2600,-0.4500,9.6300,-1.2500,-1.5625,-19.2500,0.0000,0.0000,0.0000,13407.0000,257.0000,-81.0000,-9414.0000,-0.1678
37436105,101287.101562,21.379999,3.155640,-0.0900,-0.3300,9.5500,-0.5625,-1.9375,-23.3125,0.0000,0.0000,0.0000,13355.0000,251.0000,-83.0000,-9487.0000,-0.1571
37467433,101292.093750,21.389999,2.739848,0.2100,0.0300,9.3800,-4.5625,-1.8750,-32.8750,0.0000,0.0000,0.0000,13281.0000,236.0000,-77.0000,-9591.0000,-0.1470
37497102,101288.171875,21.389999,3.066685,0.1500,0.1800,9.9100,-5.2500,-1.3750,-34.5625,0.0000,0.0000,0.0000,13199.0000,206.0000,-69.0000,-9704.0000,-0.2041
37526689,101291.023438,21.379999,2.829308,0.7000,1.1200,9.5100,-1.0625,-2.6250,-17.4375,0.0000,0.0000,0.0000,13136.0000,195.0000,-70.0000,-9790.0000,-0.2439
37565654,101282.101562,21.379999,3.571957,0.1900,0.1700,9.5900,3.5000,-2.3750,1.5625,0.0000,0.0000,0.0000,13135.0000,200.0000,-88.0000,-9791.0000,-0.1786
37596033,101279.257812,21.379999,3.808843,0.1700,0.0500,9.6600,1.6875,-1.8125,4.3125,0.0000,0.0000,0.0000,13143.0000,198.0000,-101.0000,-9779.0000,-0.1898
37626141,101293.867188,21.379999,2.592444,0.3200,0.1600,9.5300,0.1250,-0.0625,4.1250,0.0000,0.0000,0.0000,13154.0000,191.0000,-107.0000,-9766.0000,-0.1898
37656291,101289.250000,21.389999,2.976715,0.1300,0.7400,9.4900,0.0625,0.0000,4.8125,0.0000,0.0000,0.0000,13165.0000,188.0000,-110.0000,-9750.0000,-0.1917
37687712,101278.179688,21.379999,3.898820,0.2600,0.4000,9.6100,0.3125,0.5000,20.1875,0.0000,0.0000,0.0000,13200.0000,188.0000,-110.0000,-9703.0000,-0.1376
37717309,101287.101562,21.379999,3.155640,0.2700,-0.4900,9.5800,0.1250,0.5625,23.5000,0.0000,0.0000,0.0000,13260.0000,188.0000,-111.0000,-9621.0000,-0.0722
37746912,101288.171875,21.389999,3.066685,0.3800,-0.6500,9.5700,0.0625,0.3125,10.3125,0.0000,0.0000,0.0000,13297.0000,187.0000,-112.0000,-9570.0000,-0.0758
37778311,101298.859375,21.379999,2.176674,0.2600,0.1500,9.5800,0.0000,0.1250,0.0625,0.0000,0.0000,0.0000,13302.0000,187.0000,-112.0000,-9563.0000,-0.1107
37807997,101284.250000,21.389999,3.393025,0.2300,0.1600,9.5700,0.0000,0.0625,0.0000,0.0000,0.0000,0.0000,13302.0000,187.0000,-112.0000,-9563.0000,-0.0810
37837568,101292.093750,21.389999,2.739848,0.2400,0.1500,9.5800,0.0000,0.0000,0.1250,0.0000,0.0000,0.0000,13302.0000,184.0000,-114.0000,-9563.0000,-0.0846
37868949,101288.171875,21.389999,3.066685,0.2400,0.1500,9.5700,-0.0625,0.0625,-0.0625,0.0000,0.0000,0.0000,13302.0000,179.0000,-117.0000,-9563.0000,-0.1250
37898578,101284.250000,21.389999,3.393025,0.2600,0.1300,9.5900,0.0625,0.1250,-0.0625,0.0000,0.0000,0.0000,13302.0000,175.0000,-120.0000,-9563.0000,-0.1678
37928167,101284.250000,21.389999,3.393025,0.2700,0.1400,9.6000,0.0000,0.1250,-0.0625,0.0000,0.0000,0.0000,13302.0000,170.0000,-123.0000,-9563.0000,-0.0907
37966813,101280.328125,21.389999,3.719883,0.2200,0.1600,9.5600,-0.0625,-0.0625,0.0625,0.0000,0.0000,0.0000,13302.0000,165.0000,-127.0000,-9563.0000,-0.0222
37997168,101292.093750,21.389999,2.739848,0.2300,0.1600,9.5700,0.0625,0.0000,0.0000,0.0000,0.0000,0.0000,13302.0000,161.0000,-129.0000,-9563.0000,-0.1215
38027336,101281.398438,21.389999,3.630924,0.2500,0.1600,9.5900,0.0000,0.0625,0.0000,0.0000,0.0000,0.0000,13302.0000,158.0000,-132.0000,-9563.0000,-0.0882
38057438,101289.250000,21.389999,2.976715,0.2500,0.1500,9.5800,0.0625,0.1875,0.0625,0.0000,0.0000,0.0000,13302.0000,154.0000,-134.0000,-9563.0000,-0.0901
38088835,101294.242188,21.400000,2.560930,0.2500,0.1600,9.5800,0.0000,0.0625,-0.1250,0.0000,0.0000,0.0000,13302.0000,151.0000,-136.0000,-9563.0000,-0.0362
38118463,101282.101562,21.379999,3.571957,0.2600,0.1500,9.6000,0.1250,0.1875,0.0000,0.0000,0.0000,0.0000,13302.0000,148.0000,-138.0000,-9563.0000,-0.0147
38148068,101281.398438,21.389999,3.630924,0.2300,0.1500,9.5600,0.1250,0.0000,0.0000,0.0000,0.0000,0.0000,13302.0000,145.0000,-141.0000,-9563.0000,0.0667
38179475,101284.250000,21.389999,3.393025,0.2400,0.1500,9.6000,0.1875,0.0625,0.0000,0.0000,0.0000,0.0000,13302.0000,142.0000,-143.0000,-9563.0000,0.1029
38209082,101296.007812,21.389999,2.414037,0.2500,0.1600,9.5800,0.0000,0.0625,0.0000,0.0000,0.0000,0.0000,13302.0000,139.0000,-144.0000,-9563.0000,0.0252
38238672,101289.250000,21.389999,2.976715,0.2600,0.1400,9.5800,0.0000,0.1875,-0.0625,0.0000,0.0000,0.0000,13302.0000,136.0000,-146.0000,-9563.0000,-0.0241
38270101,101288.171875,21.389999,3.066685,0.2500,0.1300,9.5700,0.0000,0.0625,0.0625,0.0000,0.0000,0.0000,13302.0000,133.0000,-148.0000,-9563.0000,-0.0710
38308172,101287.101562,21.379999,3.155640,0.2100,0.1500,9.5700,-0.1875,-0.0625,0.0000,0.0000,0.0000,0.0000,13302.0000,130.0000,-151.0000,-9563.0000,-0.0341
38359922,101292.093750,21.389999,2.739848,0.2400,0.1500,9.5800,0.0625,-0.0625,0.1250,0.0000,0.0000,0.0000,13302.0000,126.0000,-153.0000,-9563.0000,-0.1131
38389391,101287.101562,21.379999,3.155640,0.2800,0.1500,9.5800,0.0000,0.0625,0.0625,0.0000,0.0000,0.0000,13302.0000,124.0000,-155.0000,-9563.0000,-0.0869
38428112,101288.171875,21.389999,3.066685,0.2500,0.1600,9.6100,-0.1250,0.0625,-0.1250,0.0000,0.0000,0.0000,13302.0000,120.0000,-157.0000,-9563.0000,-0.0458
38458414,101287.101562,21.379999,3.155640,0.2300,0.1400,9.5800,0.1875,-0.0625,0.1250,0.0000,0.0000,0.0000,13302.0000,118.0000,-158.0000,-9563.0000,-0.0726
38488579,101288.171875,21.389999,3.066685,0.2400,0.1600,9.5600,0.0625,0.1250,0.0000,0.0000,0.0000,0.0000,13302.0000,117.0000,-160.0000,-9563.0000,-0.1356
38519975,101282.101562,21.379999,3.571957,0.2600,0.1400,9.5900,-0.1875,0.1875,0.0000,0.0000,0.0000,0.0000,13302.0000,114.0000,-161.0000,-9563.0000,-0.1093
38549570,101278.179688,21.379999,3.898820,0.2400,0.1600,9.5700,0.0000,0.0000,0.1875,0.0000,0.0000,0.0000,13302.0000,112.0000,-162.0000,-9563.0000,0.0243
38579197,101282.101562,21.379999,3.571957,0.2300,0.1600,9.5800,0.0000,-0.1250,0.0625,0.0000,0.0000,0.0000,13302.0000,111.0000,-163.0000,-9563.0000,0.0868
38610601,101289.250000,21.389999,2.976715,0.2600,0.1500,9.5700,-0.0625,0.0000,-0.0625,0.0000,0.0000,0.0000,13302.0000,109.0000,-165.0000,-9563.0000,0.0962
