timestamp,baro_pressure,baro_temperature,baro_altitude,accel_x,accel_y,accel_z,gyro_x,gyro_y,gyro_z,mag_x,mag_y,mag_z,quat_w,quat_x,quat_y,quat_z,fusion_altitude,fusion_velocity
3805419,101297.031250,20.340000,2.328647,0.2700,0.1900,9.5900,0.1250,-0.0625,0.0625,0.0000,0.0000,0.0000,16382.0000,167.0000,-206.0000,0.0000,0.1863
3834034,101304.859375,20.340000,1.677061,0.2300,0.1800,9.5500,-0.1250,0.0625,0.0625,0.0000,0.0000,0.0000,16382.0000,167.0000,-206.0000,0.0000,0.3205
3863134,101299.187500,20.350000,2.149228,0.2200,0.1900,9.5800,0.0000,-0.0625,0.1250,0.0000,0.0000,0.0000,16382.0000,167.0000,-206.0000,0.0000,0.4924
3893544,101299.187500,20.350000,2.149228,0.1800,0.1900,9.5700,0.1250,0.0625,-0.0625,0.0000,0.0000,0.0000,16382.0000,167.0000,-206.0000,0.0000,0.6643
3923164,101286.367188,20.350000,3.217146,0.2400,0.1900,9.5500,0.0000,-0.1875,0.0625,0.0000,0.0000,0.0000,16382.0000,167.0000,-206.0000,0.0000,0.9217
3953300,101281.382812,20.340000,3.631940,0.2900,0.2000,9.5600,0.0000,-0.1250,0.0625,0.0000,0.0000,0.0000,16382.0000,167.0000,-206.0000,0.0000,1.2123
3983702,101307.007812,20.350000,1.498162,0.2200,0.1900,9.5800,0.1250,0.0000,0.0000,0.0000,0.0000,0.0000,16382.0000,167.0000,-206.0000,0.0000,1.3321
4013513,101283.539062,20.350000,3.452499,0.2000,0.2000,9.5800,0.0625,0.1250,0.0625,0.0000,0.0000,0.0000,16382.0000,167.0000,-206.0000,0.0000,1.6083
4043448,101287.453125,20.350000,3.126666,0.2700,0.2000,9.5600,-0.0625,-0.2500,0.1250,0.0000,0.0000,0.0000,16382.0000,167.0000,-206.0000,0.0000,1.8584
4073719,101289.210938,20.340000,2.980273,0.3000,0.2000,9.5600,-0.0625,0.0000,0.0625,0.0000,0.0000,0.0000,16382.0000,167.0000,-206.0000,0.0000,2.0969
4104025,101291.359375,20.350000,2.801351,0.2500,0.1800,9.5600,-0.1250,-0.0625,0.2500,0.0000,0.0000,0.0000,16382.0000,167.0000,-206.0000,0.0000,2.0881
4133804,101274.632812,20.350000,4.194176,0.1600,0.1900,9.5800,-0.0625,-0.0625,0.1250,0.0000,0.0000,0.0000,16382.0000,167.0000,-206.0000,0.0000,2.2559
4163853,101286.367188,20.350000,3.217146,0.2100,0.2100,9.5800,-0.0625,0.1250,-0.0625,0.0000,0.0000,0.0000,16382.0000,167.0000,-206.0000,0.0000,2.2984
4203721,101291.359375,20.350000,2.801351,0.2700,0.2000,9.5600,0.0625,-0.1250,-0.0625,0.0000,0.0000,0.0000,16382.0000,167.0000,-206.0000,0.0000,2.3076
4234195,101282.460938,20.350000,3.542473,0.2200,0.1800,9.5800,-0.0625,0.1875,0.0000,0.0000,0.0000,0.0000,16382.0000,167.0000,-206.0000,0.0000,2.2693
4264523,101289.210938,20.340000,2.980273,0.1900,0.1900,9.5700,0.0625,-0.0625,0.0000,0.0000,0.0000,0.0000,16382.0000,167.0000,-206.0000,0.0000,2.1445
4295857,101299.187500,20.350000,2.149228,0.2400,0.1900,9.5600,-0.0625,0.0625,-0.0625,0.0000,0.0000,0.0000,16382.0000,167.0000,-206.0000,0.0000,2.1666
4325410,101291.359375,20.350000,2.801351,0.2400,0.1900,9.5500,0.0000,0.1250,-0.1250,0.0000,0.0000,0.0000,16382.0000,167.0000,-206.0000,0.0000,2.0455
4354974,101299.187500,20.350000,2.149228,0.2200,0.1500,9.5600,-0.0625,0.0625,0.0625,0.0000,0.0000,0.0000,16382.0000,167.0000,-206.0000,0.0000,1.9047
4384848,101289.210938,20.340000,2.980273,0.2100,0.2100,9.5600,0.0000,0.1250,-0.1875,0.0000,0.0000,0.0000,16382.0000,167.0000,-206.0000,0.0000,1.8451
4416177,101298.109375,20.350000,2.239191,0.1800,0.1900,9.5400,-0.0625,0.0625,-0.1250,0.0000,0.0000,0.0000,16382.0000,167.0000,-206.0000,0.0000,1.7441
4445702,101287.453125,20.350000,3.126666,0.2700,0.1900,9.5700,-0.0625,0.0000,0.0000,0.0000,0.0000,0.0000,16382.0000,167.0000,-206.0000,0.0000,1.5748
4475301,101290.289062,20.350000,2.890303,0.2800,0.1800,9.5700,0.0000,0.0625,0.0000,0.0000,0.0000,0.0000,16382.0000,167.0000,-206.0000,0.0000,1.4844
4506634,101290.289062,20.350000,2.890303,0.2500,0.2200,9.5700,0.0625,-0.1250,0.1250,0.0000,0.0000,0.0000,16382.0000,167.0000,-206.0000,0.0000,1.4354
4536168,101299.187500,20.350000,2.149228,0.2100,0.1800,9.5700,0.0625,0.0000,0.0625,0.0000,0.0000,0.0000,16382.0000,167.0000,-206.0000,0.0000,1.2531
4565722,101283.539062,20.350000,3.452499,0.2200,0.2000,9.5500,0.0625,0.1875,0.0000,0.0000,0.0000,0.0000,16382.0000,167.0000,-206.0000,0.0000,1.2313
4595510,101297.031250,20.340000,2.328647,0.2700,0.1900,9.5500,0.0000,-0.1875,0.0625,0.0000,0.0000,0.0000,16382.0000,167.0000,-206.0000,0.0000,1.2027
4635035,101299.187500,20.350000,2.149228,0.2200,0.2100,9.6000,0.0000,0.0000,0.0625,0.0000,0.0000,0.0000,16382.0000,167.0000,-206.0000,0.0000,1.0945
4665670,101298.109375,20.350000,2.239191,0.1900,0.1900,9.5500,0.0625,0.1875,0.0000,0.0000,0.0000,0.0000,16382.0000,167.0000,-206.0000,0.0000,1.0587
4695758,101287.453125,20.350000,3.126666,0.2300,0.2000,9.5900,0.0625,-0.0625,0.0000,0.0000,0.0000,0.0000,16382.0000,167.0000,-206.0000,0.0000,1.0108
4727060,101273.562500,20.340000,4.283648,0.2500,0.1900,9.5600,0.0625,-0.0625,0.1250,0.0000,0.0000,0.0000,16382.0000,167.0000,-206.0000,0.0000,1.1296
4756681,101282.460938,20.350000,3.542473,0.2700,0.2000,9.5800,0.1250,0.1875,-0.1875,0.0000,0.0000,0.0000,16382.0000,167.0000,-206.0000,0.0000,1.1003
4786186,101300.273438,20.360001,2.058757,0.2200,0.1900,9.5800,-0.0625,0.1875,0.0000,0.0000,0.0000,0.0000,16382.0000,167.0000,-206.0000,0.0000,0.9760
4816138,101291.359375,20.350000,2.801351,0.2300,0.2000,9.5700,0.1250,0.1875,-0.0625,0.0000,0.0000,0.0000,16382.0000,167.0000,-206.0000,0.0000,0.9111
4847498,101301.343750,20.360001,1.969812,0.3200,0.1900,9.5700,-0.1250,0.0000,0.0000,0.0000,0.0000,0.0000,16382.0000,167.0000,-206.0000,0.0000,0.8537
4877024,101287.453125,20.350000,3.126666,0.1800,0.1700,9.5800,0.0000,0.2500,0.0000,0.0000,0.0000,0.0000,16382.0000,167.0000,-206.0000,0.0000,0.7586
4906565,101287.453125,20.350000,3.126666,0.1800,0.1800,9.5800,-0.1250,-0.0625,-0.0625,0.0000,0.0000,0.0000,16382.0000,167.0000,-206.0000,0.0000,0.7759
4975811,101292.437500,20.360001,2.711383,0.3000,0.1600,9.5600,0.0625,-0.1250,0.0625,0.0000,0.0000,0.0000,16382.0000,167.0000,-206.0000,0.0000,0.7779
5006692,101291.359375,20.350000,2.801351,0.1500,0.1900,9.5900,0.0625,0.0000,0.0000,0.0000,0.0000,0.0000,16382.0000,167.0000,-206.0000,0.0000,0.7780
5036738,101291.359375,20.350000,2.801351,0.2200,0.2000,9.5700,-0.1250,0.0000,-0.1875,0.0000,0.0000,0.0000,16382.0000,167.0000,-206.0000,0.0000,0.6895
5066866,101292.437500,20.360001,2.711383,0.3100,0.2000,9.5700,0.0625,0.1875,-0.0625,0.0000,0.0000,0.0000,16382.0000,167.0000,-206.0000,0.0000,0.4780
5106588,101295.671875,20.370001,2.441992,0.2600,0.1800,9.5900,-0.0625,0.0000,-0.0625,0.0000,0.0000,0.0000,16382.0000,167.0000,-206.0000,0.0000,0.3191
5137010,101291.359375,20.350000,2.801351,0.1900,0.1900,9.5400,0.0000,0.0625,0.0000,0.0000,0.0000,0.0000,16382.0000,167.0000,-206.0000,0.0000,0.3374
5167093,101283.539062,20.350000,3.452499,0.2300,0.1900,9.5700,0.0625,-0.1875,0.0000,0.0000,0.0000,0.0000,16382.0000,167.0000,-206.0000,0.0000,0.3334
5198416,101288.531250,20.360001,3.036695,0.2900,0.1800,9.5600,0.0000,0.1875,0.0000,0.0000,0.0000,0.0000,16382.0000,167.0000,-206.0000,0.0000,0.3794
5228042,101284.609375,20.360001,3.363542,0.2400,0.1900,9.5500,-0.0625,-0.1250,0.0625,0.0000,0.0000,0.0000,16382.0000,167.0000,-206.0000,0.0000,0.3358
5257613,101288.531250,20.360001,3.036695,0.1900,0.1900,9.5800,0.0625,0.0625,0.0000,0.0000,0.0000,0.0000,16382.0000,167.0000,-206.0000,0.0000,0.2661
5288948,101283.539062,20.350000,3.452499,0.2300,0.1900,9.5900,0.0625,0.0625,-0.0625,0.0000,0.0000,0.0000,16382.0000,167.0000,-206.0000,0.0000,0.2711
5318494,101286.773438,20.360001,3.183089,0.2900,0.2000,9.5600,0.1250,-0.0625,0.0000,0.0000,0.0000,0.0000,16382.0000,167.0000,-206.0000,0.0000,0.2457
5348048,101287.453125,20.350000,3.126666,0.2500,0.2000,9.5700,0.0625,0.0000,0.0000,0.0000,0.0000,0.0000,16382.0000,167.0000,-206.0000,0.0000,0.2157
5377887,101292.437500,20.360001,2.711383,0.2100,0.1800,9.5600,-0.0625,0.0625,-0.0625,0.0000,0.0000,0.0000,16382.0000,167.0000,-206.0000,0.0000,0.2080
5409226,101290.679688,20.360001,2.857772,0.2100,0.1900,9.5600,-0.1250,-0.1250,0.1250,0.0000,0.0000,0.0000,16382.0000,167.0000,-206.0000,0.0000,0.2260
5438789,101277.867188,20.360001,3.924746,0.2700,0.2000,9.5500,0.0000,0.0000,0.0000,0.0000,0.0000,0.0000,16382.0000,167.0000,-206.0000,0.0000,0.3028
5468331,101284.609375,20.360001,3.363542,0.2500,0.2000,9.5500,-0.1250,0.0000,0.1250,0.0000,0.0000,0.0000,16382.0000,167.0000,-206.0000,0.0000,0.2696
5507661,101294.601562,20.360001,2.530941,0.2000,0.1900,9.5700,0.0000,0.1875,-0.0625,0.0000,0.0000,0.0000,16382.0000,167.0000,-206.0000,0.0000,0.2328
5538194,101290.679688,20.360001,2.857772,0.2600,0.1900,9.5700,0.0625,0.1250,0.0625,0.0000,0.0000,0.0000,16382.0000,167.0000,-206.0000,0.0000,0.1977
5568336,101285.687500,20.360001,3.273569,0.2700,0.1700,9.5900,0.0000,-0.1250,0.0000,0.0000,0.0000,0.0000,16382.0000,167.0000,-206.0000,0.0000,0.1858
5598439,101282.859375,20.360001,3.508923,0.2200,0.1800,9.5700,0.0000,0.0625,0.0625,0.0000,0.0000,0.0000,16382.0000,167.0000,-206.0000,0.0000,0.1904
5629800,101300.273438,20.360001,2.058757,0.2000,0.1900,9.5700,0.0625,-0.0625,0.0625,0.0000,0.0000,0.0000,16382.0000,167.0000,-206.0000,0.0000,0.0993
5659342,101284.609375,20.360001,3.363542,0.2400,0.1800,9.5600,0.0000,-0.1250,0.0625,0.0000,0.0000,0.0000,16382.0000,167.0000,-206.0000,0.0000,0.1153
5688925,101301.343750,20.360001,1.969812,0.2600,0.1900,9.5600,-0.1250,-0.0625,0.0000,0.0000,0.0000,0.0000,16382.0000,167.0000,-206.0000,0.0000,0.0578
5720227,101285.687500,20.360001,3.273569,0.2200,0.1900,9.5500,0.0000,-0.0625,-0.1250,0.0000,0.0000,0.0000,16382.0000,167.0000,-206.0000,0.0000,0.1178
5749803,101279.617188,20.350000,3.779359,0.2300,0.2000,9.5700,0.0000,-0.0625,-0.0625,0.0000,0.0000,0.0000,16382.0000,167.0000,-206.0000,0.0000,0.0920
5779345,101284.609375,20.360001,3.363542,0.2600,0.2100,9.5800,0.0000,0.1250,-0.0625,0.0000,0.0000,0.0000,16382.0000,167.0000,-206.0000,0.0000,0.0807
5809182,101285.687500,20.360001,3.273569,0.2600,0.1800,9.5800,0.0000,0.0000,0.0625,0.0000,0.0000,0.0000,16382.0000,167.0000,-206.0000,0.0000,0.1604
5840536,101292.437500,20.360001,2.711383,0.2600,0.1900,9.5700,0.0625,-0.0625,0.0000,0.0000,0.0000,0.0000,16382.0000,167.0000,-206.0000,0.0000,0.1511
5870091,101292.437500,20.360001,2.711383,0.2200,0.1800,9.5800,0.0000,0.0000,-0.1250,0.0000,0.0000,0.0000,16382.0000,167.0000,-206.0000,0.0000,0.0837
5899626,101292.437500,20.360001,2.711383,0.2300,0.2000,9.5700,0.0000,-0.1250,0.0000,0.0000,0.0000,0.0000,16382.0000,167.0000,-206.0000,0.0000,0.0057
5939091,101294.601562,20.360001,2.530941,0.2600,0.2000,9.5800,-0.0625,-0.0625,0.0000,0.0000,0.0000,0.0000,16382.0000,167.0000,-206.0000,0.0000,0.0453
5969541,101291.359375,20.350000,2.801351,0.2500,0.2000,9.5400,0.0625,0.0625,-0.1250,0.0000,0.0000,0.0000,16382.0000,167.0000,-206.0000,0.0000,-0.0074
5999621,101294.601562,20.360001,2.530941,0.2200,0.1800,9.5600,0.0000,0.0625,-0.3125,0.0000,0.0000,0.0000,16382.0000,167.0000,-206.0000,0.0000,0.0429
6030929,101293.523438,20.360001,2.620908,0.2600,0.1900,9.5900,0.0000,-0.1250,-0.0625,0.0000,0.0000,0.0000,16382.0000,167.0000,-206.0000,0.0000,-0.0122
6060525,101282.859375,20.360001,3.508923,0.2400,0.1800,9.5700,-0.1250,0.0625,0.0000,0.0000,0.0000,0.0000,16382.0000,167.0000,-206.0000,0.0000,-0.0516
6090087,101285.687500,20.360001,3.273569,0.2300,0.2100,9.5700,0.0000,0.0625,-0.0625,0.0000,0.0000,0.0000,16382.0000,167.0000,-206.0000,0.0000,-0.0683
6119994,101294.601562,20.360001,2.530941,0.2300,0.2000,9.5600,-0.0625,0.3125,0.0000,0.0000,0.0000,0.0000,16382.0000,167.0000,-206.0000,0.0000,-0.1502
6151350,101294.601562,20.360001,2.530941,0.2400,0.2100,9.5600,-0.0625,0.0000,-0.0625,0.0000,0.0000,0.0000,16382.0000,167.0000,-206.0000,0.0000,-0.1498
6180881,101290.679688,20.360001,2.857772,0.2400,0.1900,9.5800,0.1250,0.0000,0.0000,0.0000,0.0000,0.0000,16382.0000,167.0000,-206.0000,0.0000,-0.1458
6210486,101290.679688,20.360001,2.857772,0.2200,0.2000,9.5900,-0.0625,-0.1250,0.0625,0.0000,0.0000,0.0000,16382.0000,167.0000,-206.0000,0.0000,-0.1453
6241852,101294.601562,20.360001,2.530941,0.2300,0.1900,9.5800,0.0625,-0.1250,0.1250,0.0000,0.0000,0.0000,16382.0000,167.0000,-206.0000,0.0000,-0.1511
6271373,101285.687500,20.360001,3.273569,0.2300,0.1800,9.5600,0.0000,0.0000,0.1250,0.0000,0.0000,0.0000,16382.0000,167.0000,-206.0000,0.0000,-0.1068
6300958,101286.773438,20.360001,3.183089,0.2300,0.1800,9.5800,0.0000,0.0625,0.1250,0.0000,0.0000,0.0000,16382.0000,167.0000,-206.0000,0.0000,-0.0196
6330709,101295.671875,20.370001,2.441992,0.2200,0.1900,9.5900,0.0000,-0.1875,0.0625,0.0000,0.0000,0.0000,16382.0000,167.0000,-206.0000,0.0000,-0.0155
6370263,101296.750000,20.370001,2.352027,0.2300,0.2100,9.5800,0.0000,-0.1250,0.0625,0.0000,0.0000,0.0000,16382.0000,167.0000,-206.0000,0.0000,-0.1371
6400755,101287.851562,20.370001,3.093117,0.2600,0.1900,9.5800,0.0000,-0.1250,-0.0625,0.0000,0.0000,0.0000,16382.0000,167.0000,-206.0000,0.0000,-0.1609
6431055,101291.757812,20.370001,2.767804,0.2400,0.1900,9.5700,0.0625,-0.0625,0.1250,0.0000,0.0000,0.0000,16382.0000,167.0000,-206.0000,0.0000,-0.1532
6462379,101285.687500,20.360001,3.273569,0.2100,0.1900,9.5500,-0.0625,-0.0625,0.0625,0.0000,0.0000,0.0000,16382.0000,167.0000,-206.0000,0.0000,-0.0819
6491931,101291.757812,20.370001,2.767804,0.2300,0.1900,9.5700,0.1250,-0.0625,0.0625,0.0000,0.0000,0.0000,16382.0000,167.0000,-206.0000,0.0000,-0.0837
6531166,101285.687500,20.360001,3.273569,0.2500,0.1800,9.5700,-0.0625,0.0625,0.0000,0.0000,0.0000,0.0000,16382.0000,167.0000,-206.0000,0.0000,-0.0534
6583031,101290.679688,20.360001,2.857772,0.2200,0.1900,9.5700,0.0000,0.0625,0.0000,0.0000,0.0000,0.0000,16382.0000,167.0000,-206.0000,0.0000,-0.0218
6614383,101293.523438,20.360001,2.620908,0.2400,0.2000,9.5900,0.1250,0.0000,0.1250,0.0000,0.0000,0.0000,16382.0000,167.0000,-206.0000,0.0000,-0.0835
6643956,101280.023438,20.370001,3.745300,0.2200,0.2100,9.5800,-0.0625,0.0000,0.1250,0.0000,0.0000,0.0000,16382.0000,167.0000,-206.0000,0.0000,-0.0479
6673540,101281.781250,20.360001,3.598898,0.2100,0.1800,9.5400,0.0000,0.0625,-0.0625,0.0000,0.0000,0.0000,16382.0000,167.0000,-206.0000,0.0000,0.0446
6704859,101283.929688,20.370001,3.419966,0.2200,0.1800,9.5800,0.0000,-0.1250,0.1250,0.0000,0.0000,0.0000,16382.0000,167.0000,-206.0000,0.0000,0.1390
6734429,101287.851562,20.370001,3.093117,0.2400,0.1900,9.5800,-0.1250,0.0000,-0.0625,0.0000,0.0000,0.0000,16382.0000,167.0000,-206.0000,0.0000,0.1462
6763976,101295.671875,20.370001,2.441992,0.2400,0.1900,9.5800,0.0625,0.0000,-0.0625,0.0000,0.0000,0.0000,16382.0000,167.0000,-206.0000,0.0000,0.1256
6801907,101287.851562,20.370001,3.093117,0.2400,0.1800,9.5900,0.0625,-0.0625,0.0625,0.0000,0.0000,0.0000,16382.0000,167.0000,-206.0000,0.0000,0.1129
6832186,101295.671875,20.370001,2.441992,0.2300,0.1800,9.5800,0.0000,-0.1875,0.0000,0.0000,0.0000,0.0000,16382.0000,167.0000,-206.0000,0.0000,0.0922
6862262,101287.851562,20.370001,3.093117,0.2400,0.2000,9.5800,0.0625,0.0000,-0.1250,0.0000,0.0000,0.0000,16382.0000,167.0000,-206.0000,0.0000,0.0814
6892440,101282.859375,20.360001,3.508923,0.2200,0.1800,9.5900,0.1250,-0.0625,0.0000,0.0000,0.0000,0.0000,16382.0000,167.0000,-206.0000,0.0000,0.1400
6923767,101295.671875,20.370001,2.441992,0.2400,0.1800,9.5700,0.0625,0.0625,-0.0625,0.0000,0.0000,0.0000,16382.0000,167.0000,-206.0000,0.0000,0.1358
6953288,101287.851562,20.370001,3.093117,0.2400,0.1900,9.5500,-0.1250,0.1250,0.0000,0.0000,0.0000,0.0000,16382.0000,167.0000,-206.0000,0.0000,0.0629
6982856,101285.687500,20.360001,3.273569,0.2400,0.1900,9.5700,0.1250,-0.0625,0.0000,0.0000,0.0000,0.0000,16382.0000,167.0000,-206.0000,0.0000,0.0221
7014191,101295.671875,20.370001,2.441992,0.2400,0.1900,9.5900,0.1875,0.0000,0.0000,0.0000,0.0000,0.0000,16382.0000,167.0000,-206.0000,0.0000,-0.0461
7043718,101292.843750,20.370001,2.677328,0.2300,0.1900,9.5900,0.1250,-0.0625,-0.1250,0.0000,0.0000,0.0000,16382.0000,167.0000,-206.0000,0.0000,-0.0739
7073316,101283.929688,20.370001,3.419966,0.2300,0.1800,9.5900,0.0625,-0.1250,0.0000,0.0000,0.0000,0.0000,16382.0000,167.0000,-206.0000,0.0000,0.0061
7103155,101280.023438,20.370001,3.745300,0.2200,0.2000,9.5700,0.0625,0.1250,0.0000,0.0000,0.0000,0.0000,16382.0000,167.0000,-206.0000,0.0000,0.0536
7134500,101280.023438,20.370001,3.745300,0.2400,0.1900,9.5900,0.0625,-0.1250,-0.1250,0.0000,0.0000,0.0000,16382.0000,167.0000,-206.0000,0.0000,0.1745
7164064,101281.101562,20.370001,3.655324,0.2300,0.1900,9.5700,0.0000,0.1250,-0.0625,0.0000,0.0000,0.0000,16382.0000,167.0000,-206.0000,0.0000,0.2277
7193571,101288.921875,20.370001,3.004163,0.2300,0.1900,9.5800,0.0625,-0.1250,-0.0625,0.0000,0.0000,0.0000,16382.0000,167.0000,-206.0000,0.0000,0.1584
7233090,101280.023438,20.370001,3.745300,0.2200,0.2000,9.5800,0.0000,-0.1250,0.0000,0.0000,0.0000,0.0000,16382.0000,167.0000,-206.0000,0.0000,0.2811
7263531,101288.921875,20.370001,3.004163,0.2300,0.2000,9.5900,-0.1250,0.0625,0.0000,0.0000,0.0000,0.0000,16382.0000,167.0000,-206.0000,0.0000,0.2515
7293550,101292.843750,20.370001,2.677328,0.2500,0.1900,9.5400,-0.0625,-0.1250,-0.0625,0.0000,0.0000,0.0000,16382.0000,167.0000,-206.0000,0.0000,0.2038
7323840,101287.851562,20.370001,3.093117,0.2300,0.1900,9.6100,0.1250,-0.0625,0.0625,0.0000,0.0000,0.0000,16382.0000,167.0000,-206.0000,0.0000,0.2826
7355171,101291.757812,20.370001,2.767804,0.2300,0.1900,9.5700,0.0625,-0.1875,-0.0625,0.0000,0.0000,0.0000,16382.0000,167.0000,-206.0000,0.0000,0.3036
7384742,101290.000000,20.379999,2.914194,0.2500,0.2100,9.5700,-0.0625,0.0000,0.0625,0.0000,0.0000,0.0000,16382.0000,167.0000,-206.0000,0.0000,0.2602
7414295,101291.078125,20.379999,2.824733,0.2500,0.2000,9.5900,0.0625,0.0000,0.0000,0.0000,0.0000,0.0000,16382.0000,167.0000,-206.0000,0.0000,0.1659
7445650,101297.820312,20.379999,2.263080,0.2200,0.1800,9.5800,-0.1250,0.1250,0.0000,0.0000,0.0000,0.0000,16382.0000,167.0000,-206.0000,0.0000,0.0266
7475195,101285.007812,20.370001,3.329993,0.2200,0.1900,9.5800,0.0000,-0.1250,0.0000,0.0000,0.0000,0.0000,16382.0000,167.0000,-206.0000,0.0000,-0.0183
7504764,101290.000000,20.379999,2.914194,0.2400,0.1900,9.5900,0.0625,0.0625,-0.1250,0.0000,0.0000,0.0000,16382.0000,167.0000,-206.0000,0.0000,-0.0350
7536067,101292.843750,20.370001,2.677328,0.2300,0.1800,9.5700,0.0000,0.0000,-0.0625,0.0000,0.0000,0.0000,16382.0000,167.0000,-206.0000,0.0000,-0.1393
7565603,101287.851562,20.370001,3.093117,0.2400,0.1900,9.5800,-0.0625,0.0000,0.0625,0.0000,0.0000,0.0000,16382.0000,167.0000,-206.0000,0.0000,-0.1416
7595178,101286.093750,20.379999,3.239512,0.2100,0.1700,9.5600,-0.1250,-0.1250,0.0000,0.0000,0.0000,0.0000,16382.0000,167.0000,-206.0000,0.0000,-0.0978
7624770,101290.000000,20.379999,2.914194,0.2200,0.1700,9.5300,-0.0625,-0.0625,0.0000,0.0000,0.0000,0.0000,16382.0000,167.0000,-206.0000,0.0000,-0.1038
7664230,101290.000000,20.379999,2.914194,0.2600,0.2000,9.5600,0.1250,0.0625,0.0625,0.0000,0.0000,0.0000,16382.0000,167.0000,-206.0000,0.0000,-0.0820
7694849,101291.757812,20.370001,2.767804,0.2500,0.2100,9.5900,0.0000,0.0625,0.0000,0.0000,0.0000,0.0000,16382.0000,167.0000,-206.0000,0.0000,-0.1013
7724934,101287.851562,20.370001,3.093117,0.2200,0.1900,9.5800,0.0000,0.0625,0.0000,0.0000,0.0000,0.0000,16382.0000,167.0000,-206.0000,0.0000,-0.0857
7756297,101288.921875,20.370001,3.004163,0.2200,0.1900,9.5700,0.0625,0.1875,0.0000,0.0000,0.0000,0.0000,16382.0000,167.0000,-206.0000,0.0000,-0.0146
7785872,101290.000000,20.379999,2.914194,0.2700,0.1800,9.5800,-0.1250,0.0625,0.0000,0.0000,0.0000,0.0000,16382.0000,167.0000,-206.0000,0.0000,-0.0573
7815450,101297.820312,20.379999,2.263080,0.2400,0.1900,9.5600,0.0000,0.0625,-0.0625,0.0000,0.0000,0.0000,16382.0000,167.0000,-206.0000,0.0000,-0.1170
7845359,101287.851562,20.370001,3.093117,0.2200,0.1800,9.5700,-0.0625,0.2500,-0.0625,0.0000,0.0000,0.0000,16382.0000,167.0000,-206.0000,0.0000,-0.0718
7876693,101290.000000,20.379999,2.914194,0.2200,0.1900,9.5700,0.0000,0.1250,-0.0625,0.0000,0.0000,0.0000,16382.0000,167.0000,-206.0000,0.0000,-0.0843
7906258,101290.000000,20.379999,2.914194,0.2400,0.2100,9.5400,-0.1875,0.1875,-0.0625,0.0000,0.0000,0.0000,16382.0000,167.0000,-206.0000,0.0000,-0.1263
7935810,101291.078125,20.379999,2.824733,0.2500,0.2000,9.5800,-0.0625,0.3750,0.0625,0.0000,0.0000,0.0000,16382.0000,167.0000,-206.0000,0.0000,-0.1447
7967132,101282.171875,20.379999,3.566365,0.2200,0.1700,9.5800,0.0000,0.0000,0.0625,0.0000,0.0000,0.0000,16382.0000,167.0000,-206.0000,0.0000,-0.0890
7996682,101288.921875,20.370001,3.004163,0.2400,0.1900,9.5700,0.0625,0.1875,0.0625,0.0000,0.0000,0.0000,16382.0000,167.0000,-206.0000,0.0000,-0.0701
8026209,101290.000000,20.379999,2.914194,0.2400,0.2000,9.5600,0.0000,0.0000,0.1250,0.0000,0.0000,0.0000,16382.0000,167.0000,-206.0000,0.0000,-0.0808
8065532,101293.906250,20.379999,2.588886,0.2400,0.1800,9.5800,0.0000,0.0625,-0.0625,0.0000,0.0000,0.0000,16382.0000,167.0000,-206.0000,0.0000,-0.1187
8105856,101282.171875,20.379999,3.566365,0.2200,0.1900,9.5900,0.1250,0.0625,0.0000,0.0000,0.0000,0.0000,16382.0000,167.0000,-206.0000,0.0000,-0.0594
8157961,101286.093750,20.379999,3.239512,0.2300,0.2000,9.5500,-0.0625,0.0000,-0.1250,0.0000,0.0000,0.0000,16382.0000,167.0000,-206.0000,0.0000,0.0307
8187514,101291.078125,20.379999,2.824733,0.2400,0.2000,9.5800,0.0000,-0.1875,0.0000,0.0000,0.0000,0.0000,16382.0000,167.0000,-206.0000,0.0000,-0.0003
8218864,101291.757812,20.370001,2.767804,0.2400,0.1700,9.5800,0.0625,0.0625,0.0000,0.0000,0.0000,0.0000,16382.0000,167.0000,-206.0000,0.0000,0.0047
8248404,101292.148438,20.389999,2.735273,0.2400,0.1900,9.5700,-0.1250,-0.1875,0.0000,0.0000,0.0000,0.0000,16382.0000,167.0000,-206.0000,0.0000,0.0040
8277986,101282.171875,20.379999,3.566365,0.2300,0.2000,9.5900,-0.1250,0.0000,-0.0625,0.0000,0.0000,0.0000,16382.0000,167.0000,-206.0000,0.0000,0.0753
8309342,101285.398438,20.389999,3.297460,0.2400,0.1900,9.6100,0.0000,0.0625,-0.0625,0.0000,0.0000,0.0000,16382.0000,167.0000,-206.0000,0.0000,0.0443
8338909,101292.148438,20.389999,2.735273,0.2500,0.1700,9.5700,0.1250,-0.0625,0.0625,0.0000,0.0000,0.0000,16382.0000,167.0000,-206.0000,0.0000,0.0115
8368462,101290.000000,20.379999,2.914194,0.2400,0.2000,9.5500,0.0625,-0.0625,-0.0625,0.0000,0.0000,0.0000,16382.0000,167.0000,-206.0000,0.0000,0.0151
8397961,101278.257812,20.379999,3.892212,0.2300,0.1800,9.5800,0.0000,0.0000,-0.0625,0.0000,0.0000,0.0000,16382.0000,167.0000,-206.0000,0.0000,0.1164
8429344,101287.156250,20.379999,3.151065,0.2500,0.1900,9.5700,-0.0625,0.0000,0.0000,0.0000,0.0000,0.0000,16382.0000,167.0000,-206.0000,0.0000,0.0738
8458885,101290.000000,20.379999,2.914194,0.2200,0.1600,9.5800,0.0000,-0.0625,0.0625,0.0000,0.0000,0.0000,16382.0000,167.0000,-206.0000,0.0000,0.0531
8488464,101297.820312,20.379999,2.263080,0.2300,0.1800,9.5600,-0.0625,0.0000,-0.0625,0.0000,0.0000,0.0000,16382.0000,167.0000,-206.0000,0.0000,0.0005
8527248,101282.171875,20.379999,3.566365,0.2400,0.2000,9.5500,-0.1250,-0.1875,0.0000,0.0000,0.0000,0.0000,16382.0000,167.0000,-206.0000,0.0000,0.0709
8557561,101286.093750,20.379999,3.239512,0.2400,0.2000,9.5700,-0.1250,0.0625,0.0000,0.0000,0.0000,0.0000,16382.0000,167.0000,-206.0000,0.0000,0.1220
8587616,101296.070312,20.389999,2.408954,0.2300,0.2000,9.5700,0.0625,-0.0625,-0.0625,0.0000,0.0000,0.0000,16382.0000,167.0000,-206.0000,0.0000,0.0069
8617718,101286.093750,20.379999,3.239512,0.2200,0.1900,9.5700,0.0000,-0.0625,0.0625,0.0000,0.0000,0.0000,16382.0000,167.0000,-206.0000,0.0000,-0.0101
8648992,101282.171875,20.379999,3.566365,0.2200,0.1900,9.5700,-0.1250,0.0000,0.0625,0.0000,0.0000,0.0000,16382.0000,167.0000,-206.0000,0.0000,0.0701
8678593,101282.171875,20.379999,3.566365,0.2500,0.1800,9.5500,0.0000,0.1250,0.0000,0.0000,0.0000,0.0000,16382.0000,167.0000,-206.0000,0.0000,0.1389
8708166,101287.851562,20.370001,3.093117,0.2300,0.1700,9.5800,0.0000,0.0625,-0.0625,0.0000,0.0000,0.0000,16382.0000,167.0000,-206.0000,0.0000,0.0720
8739524,101282.171875,20.379999,3.566365,0.2200,0.1900,9.5900,0.0000,0.1875,0.0000,0.0000,0.0000,0.0000,16382.0000,167.0000,-206.0000,0.0000,0.1153
8769094,101290.000000,20.379999,2.914194,0.2400,0.1900,9.5900,0.0625,0.0625,0.0000,0.0000,0.0000,0.0000,16382.0000,167.0000,-206.0000,0.0000,0.1171
8798664,101285.007812,20.370001,3.329993,0.2300,0.2000,9.5900,0.0000,-0.0625,0.1250,0.0000,0.0000,0.0000,16382.0000,167.0000,-206.0000,0.0000,0.2321
8830010,101282.171875,20.379999,3.566365,0.2400,0.2000,9.5600,0.0000,0.0000,-0.1875,0.0000,0.0000,0.0000,16382.0000,167.0000,-206.0000,0.0000,0.2209
8859571,101298.898438,20.379999,2.173116,0.2300,0.1900,9.5700,-0.0625,0.0000,0.0625,0.0000,0.0000,0.0000,16382.0000,167.0000,-206.0000,0.0000,0.1243
8889130,101297.820312,20.379999,2.263080,0.2300,0.1900,9.5800,0.0625,-0.2500,-0.0625,0.0000,0.0000,0.0000,16382.0000,167.0000,-206.0000,0.0000,0.1263
8918770,101295.671875,20.370001,2.441992,0.2300,0.1900,9.5700,-0.0625,0.0625,0.0000,0.0000,0.0000,0.0000,16382.0000,167.0000,-206.0000,0.0000,0.0531
8958223,101282.171875,20.379999,3.566365,0.2400,0.2000,9.5800,-0.0625,0.0625,0.0000,0.0000,0.0000,0.0000,16382.0000,167.0000,-206.0000,0.0000,0.0401
8988843,101291.757812,20.370001,2.767804,0.2400,0.1900,9.5600,0.1250,0.0625,-0.0625,0.0000,0.0000,0.0000,16382.0000,167.0000,-206.0000,0.0000,-0.0387
9018918,101286.093750,20.379999,3.239512,0.2300,0.2000,9.5700,0.0625,0.0000,0.0625,0.0000,0.0000,0.0000,16382.0000,167.0000,-206.0000,0.0000,-0.0435
9050248,101290.000000,20.379999,2.914194,0.2100,0.2000,9.5700,-0.1250,0.1875,-0.0625,0.0000,0.0000,0.0000,16382.0000,167.0000,-206.0000,0.0000,-0.1004
9079820,101291.757812,20.370001,2.767804,0.2000,0.1300,9.6300,-0.0625,-0.1250,0.0000,0.0000,0.0000,0.0000,16382.0000,167.0000,-206.0000,0.0000,-0.1122
9109369,101290.000000,20.379999,2.914194,0.2400,0.1300,9.4900,0.0625,0.0625,0.0000,0.0000,0.0000,0.0000,16382.0000,167.0000,-206.0000,0.0000,-0.1585
9139387,101282.171875,20.379999,3.566365,0.2300,0.2400,9.6600,-0.0625,0.1250,-0.0625,0.0000,0.0000,0.0000,16382.0000,167.0000,-206.0000,0.0000,-0.1679
9170797,101287.851562,20.370001,3.093117,0.1900,0.1800,9.3400,0.1875,-0.1250,-0.1250,0.0000,0.0000,0.0000,16382.0000,167.0000,-206.0000,0.0000,-0.0730
9200348,101287.851562,20.370001,3.093117,0.3100,0.2300,9.6600,0.0000,0.1250,-0.0625,0.0000,0.0000,0.0000,16382.0000,167.0000,-206.0000,0.0000,0.0064
9229907,101290.000000,20.379999,2.914194,0.2200,0.1400,9.6600,-0.0625,-0.1875,0.0625,0.0000,0.0000,0.0000,16382.0000,167.0000,-206.0000,0.0000,0.0536
9261273,101287.851562,20.370001,3.093117,0.2400,0.1200,9.7500,-0.1250,-0.1875,0.0000,0.0000,0.0000,0.0000,16382.0000,167.0000,-206.0000,0.0000,-0.0002
9290822,101291.078125,20.379999,2.824733,0.2200,0.2200,9.4700,0.1250,0.1250,0.0000,0.0000,0.0000,0.0000,16382.0000,167.0000,-206.0000,0.0000,0.0109
9320350,101281.101562,20.370001,3.655324,0.2300,0.0600,9.6600,-0.0625,-0.0625,0.0000,0.0000,0.0000,0.0000,16382.0000,167.0000,-206.0000,0.0000,0.0394
9350086,101290.000000,20.379999,2.914194,0.2400,0.1700,9.6600,-0.1875,0.3125,-0.0625,0.0000,0.0000,0.0000,16382.0000,167.0000,-206.0000,0.0000,0.0394
9389581,101287.851562,20.370001,3.093117,0.1700,0.1000,9.5500,0.0625,0.1250,0.0625,0.0000,0.0000,0.0000,16382.0000,167.0000,-206.0000,0.0000,0.0554
9420145,101296.750000,20.370001,2.352027,0.2500,0.1700,9.6300,0.1875,0.1250,-0.1250,0.0000,0.0000,0.0000,16382.0000,167.0000,-206.0000,0.0000,0.0140
9450232,101286.093750,20.379999,3.239512,0.2800,0.2400,9.6300,-0.1875,-0.0625,-0.1250,0.0000,0.0000,0.0000,16382.0000,167.0000,-206.0000,0.0000,-0.0252
9481607,101288.921875,20.370001,3.004163,0.2000,0.1300,9.5500,0.0000,0.0000,-0.0625,0.0000,0.0000,0.0000,16382.0000,167.0000,-206.0000,0.0000,-0.0359
9511168,101290.000000,20.379999,2.914194,0.2600,0.2000,9.6000,-0.1250,0.0625,-0.0625,0.0000,0.0000,0.0000,16382.0000,167.0000,-206.0000,0.0000,-0.0556
9540729,101290.000000,20.379999,2.914194,0.2400,0.2100,9.5800,0.0625,-0.0625,0.0625,0.0000,0.0000,0.0000,16382.0000,167.0000,-206.0000,0.0000,-0.0426
9572077,101282.171875,20.379999,3.566365,0.2400,0.1900,9.5900,0.0000,-0.2500,0.0625,0.0000,0.0000,0.0000,16382.0000,167.0000,-206.0000,0.0000,-0.0065
9601640,101287.851562,20.370001,3.093117,0.2300,0.1700,9.5300,0.1250,-0.2500,0.1250,0.0000,0.0000,0.0000,16382.0000,167.0000,-206.0000,0.0000,0.0168
9631197,101291.078125,20.379999,2.824733,0.2500,0.1800,9.5800,-0.0625,0.1250,0.0625,0.0000,0.0000,0.0000,16382.0000,167.0000,-206.0000,0.0000,-0.0710
9661002,101296.750000,20.370001,2.352027,0.2400,0.2000,9.5800,0.0000,-0.0625,0.1250,0.0000,0.0000,0.0000,16382.0000,167.0000,-206.0000,0.0000,-0.1029
9692303,101291.078125,20.379999,2.824733,0.2000,0.1600,9.5800,0.1250,0.0625,-0.1875,0.0000,0.0000,0.0000,16382.0000,167.0000,-206.0000,0.0000,-0.1215
9751716,101291.078125,20.379999,2.824733,0.2300,0.1900,9.5900,0.0625,0.1875,-0.0625,0.0000,0.0000,0.0000,16382.0000,167.0000,-206.0000,0.0000,-0.0742
9781855,101298.898438,20.379999,2.173116,0.2300,0.2000,9.5800,0.0625,-0.1875,0.0000,0.0000,0.0000,0.0000,16382.0000,167.0000,-206.0000,0.0000,-0.1690
9820996,101291.078125,20.379999,2.824733,0.2400,0.2100,9.5800,0.1250,0.0000,-0.0625,0.0000,0.0000,0.0000,16382.0000,167.0000,-206.0000,0.0000,-0.1887
9851418,101287.156250,20.379999,3.151065,0.2300,0.1900,9.5600,0.1250,0.0625,-0.0625,0.0000,0.0000,0.0000,16382.0000,167.0000,-206.0000,0.0000,-0.1567
9881556,101287.851562,20.370001,3.093117,0.2400,0.1800,9.5600,-0.0625,-0.0625,0.0000,0.0000,0.0000,0.0000,16382.0000,167.0000,-206.0000,0.0000,-0.1347
9911644,101286.093750,20.379999,3.239512,0.2400,0.1900,9.6000,0.0625,0.0000,0.0000,0.0000,0.0000,0.0000,16382.0000,167.0000,-206.0000,0.0000,-0.1775
9942980,101299.976562,20.389999,2.083662,0.2200,0.1800,9.5800,0.0000,-0.1875,-0.0625,0.0000,0.0000,0.0000,16382.0000,167.0000,-206.0000,0.0000,-0.2618
9972530,101288.242188,20.389999,3.060585,0.2200,0.1900,9.5700,0.0000,0.2500,-0.0625,0.0000,0.0000,0.0000,16382.0000,167.0000,-206.0000,0.0000,-0.2216
10002061,101291.078125,20.379999,2.824733,0.2400,0.1800,9.5800,-0.1250,0.3125,0.0625,0.0000,0.0000,0.0000,16382.0000,167.0000,-206.0000,0.0000,-0.1678
10033388,101284.328125,20.389999,3.386925,0.2300,0.1800,9.5700,0.0625,0.1250,0.0000,0.0000,0.0000,0.0000,16382.0000,167.0000,-206.0000,0.0000,-0.1210
10062890,101296.070312,20.389999,2.408954,0.2200,0.1900,9.5800,0.0000,-0.1250,0.0000,0.0000,0.0000,0.0000,16382.0000,167.0000,-206.0000,0.0000,-0.1655
10092502,101284.328125,20.389999,3.386925,0.2700,0.1900,9.5600,-0.1250,-0.0625,0.0000,0.0000,0.0000,0.0000,16382.0000,167.0000,-206.0000,0.0000,-0.0406
10123847,101289.320312,20.389999,2.971123,0.2400,0.1900,9.5900,0.1250,0.1250,-0.0625,0.0000,0.0000,0.0000,16382.0000,167.0000,-206.0000,0.0000,-0.0206
10153398,101293.226562,20.389999,2.645814,0.2300,0.1800,9.5700,-0.0625,0.0625,0.0000,0.0000,0.0000,0.0000,16382.0000,167.0000,-206.0000,0.0000,-0.0758
10182960,101288.242188,20.389999,3.060585,0.2400,0.1900,9.5800,0.0000,0.0000,-0.0625,0.0000,0.0000,0.0000,16382.0000,167.0000,-206.0000,0.0000,-0.0755
10212696,101285.398438,20.389999,3.297460,0.2700,0.2000,9.5800,0.0000,-0.0625,0.0000,0.0000,0.0000,0.0000,16382.0000,167.0000,-206.0000,0.0000,-0.0643
10252163,101284.328125,20.389999,3.386925,0.2400,0.1900,9.6100,0.1250,0.0000,-0.0625,0.0000,0.0000,0.0000,16382.0000,167.0000,-206.0000,0.0000,0.0696
10282785,101280.406250,20.389999,3.713274,0.2500,0.1800,9.5500,0.1250,-0.1875,0.0000,0.0000,0.0000,0.0000,16382.0000,167.0000,-206.0000,0.0000,0.1225
10312932,101292.148438,20.389999,2.735273,0.2300,0.1900,9.5800,-0.0625,0.1250,-0.0625,0.0000,0.0000,0.0000,16382.0000,167.0000,-206.0000,0.0000,0.1301
10344252,101277.578125,20.389999,3.949147,0.2200,0.1900,9.5800,-0.0625,0.0000,-0.0625,0.0000,0.0000,0.0000,16382.0000,167.0000,-206.0000,0.0000,0.1657
10373823,101286.476562,20.400000,3.207996,0.2300,0.1900,9.5900,-0.0625,0.0000,-0.1250,0.0000,0.0000,0.0000,16382.0000,167.0000,-206.0000,0.0000,0.2480
10403396,101293.226562,20.389999,2.645814,0.2400,0.1900,9.5500,0.1875,0.1250,-0.0625,0.0000,0.0000,0.0000,16382.0000,167.0000,-206.0000,0.0000,0.1923
10433324,101297.140625,20.389999,2.319498,0.2300,0.1900,9.5400,-0.0625,0.0000,0.0000,0.0000,0.0000,0.0000,16382.0000,167.0000,-206.0000,0.0000,0.1242
10464673,101290.398438,20.400000,2.881154,0.2400,0.2100,9.5600,0.0000,0.0000,-0.1250,0.0000,0.0000,0.0000,16382.0000,167.0000,-206.0000,0.0000,0.1354
10494173,101286.476562,20.400000,3.207996,0.2200,0.1800,9.5700,-0.0625,-0.1875,0.0625,0.0000,0.0000,0.0000,16382.0000,167.0000,-206.0000,0.0000,0.1348
10523764,101296.070312,20.389999,2.408954,0.2200,0.2000,9.6000,-0.0625,0.0000,0.0000,0.0000,0.0000,0.0000,16382.0000,167.0000,-206.0000,0.0000,0.0691
10555116,101285.398438,20.389999,3.297460,0.2300,0.1900,9.5600,-0.0625,-0.1250,0.0625,0.0000,0.0000,0.0000,16382.0000,167.0000,-206.0000,0.0000,0.0496
10584694,101285.398438,20.389999,3.297460,0.2300,0.1900,9.5500,0.0000,-0.2500,0.0000,0.0000,0.0000,0.0000,16382.0000,167.0000,-206.0000,0.0000,0.0068
10614274,101286.476562,20.400000,3.207996,0.2300,0.1900,9.6100,0.1250,-0.0625,-0.1250,0.0000,0.0000,0.0000,16382.0000,167.0000,-206.0000,0.0000,0.0482
10653577,101287.562500,20.400000,3.117516,0.2500,0.2000,9.5700,0.0000,0.0625,-0.0625,0.0000,0.0000,0.0000,16382.0000,167.0000,-206.0000,0.0000,-0.0419
10684045,101292.148438,20.389999,2.735273,0.2500,0.1800,9.5900,-0.1250,0.0000,0.0625,0.0000,0.0000,0.0000,16382.0000,167.0000,-206.0000,0.0000,-0.0856
10714126,101296.460938,20.410000,2.376424,0.2200,0.1700,9.5900,0.1250,0.1875,-0.0625,0.0000,0.0000,0.0000,16382.0000,167.0000,-206.0000,0.0000,-0.0888
10744174,101285.398438,20.389999,3.297460,0.2400,0.1900,9.5700,0.0000,0.1875,0.0000,0.0000,0.0000,0.0000,16382.0000,167.0000,-206.0000,0.0000,0.0049
10775522,101286.476562,20.400000,3.207996,0.2400,0.2000,9.5700,0.0000,0.0000,-0.0625,0.0000,0.0000,0.0000,16382.0000,167.0000,-206.0000,0.0000,0.0353
10805117,101290.398438,20.400000,2.881154,0.2200,0.1700,9.5600,0.0000,-0.2500,-0.0625,0.0000,0.0000,0.0000,16382.0000,167.0000,-206.0000,0.0000,0.0033
10834625,101282.570312,20.400000,3.533323,0.2100,0.1700,9.5600,0.0000,0.0000,0.0000,0.0000,0.0000,0.0000,16382.0000,167.0000,-206.0000,0.0000,0.1069
10865998,101282.570312,20.400000,3.533323,0.2600,0.2000,9.5500,-0.0625,0.0625,0.0625,0.0000,0.0000,0.0000,16382.0000,167.0000,-206.0000,0.0000,0.1163
10895571,101286.476562,20.400000,3.207996,0.2500,0.1900,9.5800,0.1250,-0.0625,0.0625,0.0000,0.0000,0.0000,16382.0000,167.0000,-206.0000,0.0000,0.1163
10925121,101295.390625,20.400000,2.465373,0.2100,0.1800,9.5700,-0.0625,0.0000,-0.0625,0.0000,0.0000,0.0000,16382.0000,167.0000,-206.0000,0.0000,0.0511
10954929,101290.398438,20.400000,2.881154,0.2200,0.1900,9.5900,0.0625,-0.1250,0.0000,0.0000,0.0000,0.0000,16382.0000,167.0000,-206.0000,0.0000,0.0317
10986226,101284.718750,20.410000,3.354392,0.2500,0.1900,9.5900,0.0000,0.0000,-0.0625,0.0000,0.0000,0.0000,16382.0000,167.0000,-206.0000,0.0000,0.0735
11015827,101282.570312,20.400000,3.533323,0.2600,0.1800,9.5800,0.0625,0.1250,-0.1250,0.0000,0.0000,0.0000,16382.0000,167.0000,-206.0000,0.0000,0.1833
11045422,101287.562500,20.400000,3.117516,0.2300,0.1900,9.5800,-0.0625,-0.0625,-0.0625,0.0000,0.0000,0.0000,16382.0000,167.0000,-206.0000,0.0000,0.1631
11084916,101282.570312,20.400000,3.533323,0.2400,0.1900,9.5600,0.0000,0.2500,0.0000,0.0000,0.0000,0.0000,16382.0000,167.0000,-206.0000,0.0000,0.1832
11115326,101290.398438,20.400000,2.881154,0.2500,0.1800,9.5900,0.0000,-0.0625,0.0000,0.0000,0.0000,0.0000,16382.0000,167.0000,-206.0000,0.0000,0.1839
11145420,101280.812500,20.410000,3.679724,0.2300,0.1800,9.5500,-0.0625,0.1875,0.0625,0.0000,0.0000,0.0000,16382.0000,167.0000,-206.0000,0.0000,0.1963
11176756,101288.640625,20.410000,3.027545,0.2400,0.2000,9.6000,0.0000,-0.0625,-0.1250,0.0000,0.0000,0.0000,16382.0000,167.0000,-206.0000,0.0000,0.1470
11206312,101276.500000,20.389999,4.038617,0.2400,0.1900,9.5600,0.0000,0.0625,-0.0625,0.0000,0.0000,0.0000,16382.0000,167.0000,-206.0000,0.0000,0.2058
11235881,101287.562500,20.400000,3.117516,0.2400,0.1900,9.5600,0.0000,-0.2500,0.0625,0.0000,0.0000,0.0000,16382.0000,167.0000,-206.0000,0.0000,0.2557
11265967,101278.656250,20.400000,3.859169,0.2400,0.1900,9.5600,0.0000,0.1250,0.0000,0.0000,0.0000,0.0000,16382.0000,167.0000,-206.0000,0.0000,0.3328
11326205,101287.562500,20.400000,3.117516,0.2500,0.1900,9.5700,0.0000,-0.1875,0.0625,0.0000,0.0000,0.0000,16382.0000,167.0000,-206.0000,0.0000,0.3033
11356429,101293.632812,20.410000,2.611758,0.2300,0.1900,9.5800,0.0000,-0.1875,0.0000,0.0000,0.0000,0.0000,16382.0000,167.0000,-206.0000,0.0000,0.2023
11386289,101287.562500,20.400000,3.117516,0.2400,0.1800,9.5700,-0.0625,-0.1875,0.0000,0.0000,0.0000,0.0000,16382.0000,167.0000,-206.0000,0.0000,0.1965
11417609,101290.789062,20.410000,2.848623,0.2400,0.2000,9.6000,0.1250,0.0000,0.0000,0.0000,0.0000,0.0000,16382.0000,167.0000,-206.0000,0.0000,0.1341
11447187,101296.460938,20.410000,2.376424,0.2300,0.1900,9.5600,-0.0625,-0.1250,0.0000,0.0000,0.0000,0.0000,16382.0000,167.0000,-206.0000,0.0000,0.0979
11476736,101296.460938,20.410000,2.376424,0.2400,0.1900,9.5800,0.0000,-0.0625,-0.0625,0.0000,0.0000,0.0000,16382.0000,167.0000,-206.0000,0.0000,-0.0152
11506648,101286.476562,20.400000,3.207996,0.2400,0.1800,9.5500,-0.0625,0.0625,-0.1250,0.0000,0.0000,0.0000,16382.0000,167.0000,-206.0000,0.0000,-0.0196
11546264,101294.312500,20.400000,2.555339,0.2300,0.1800,9.5600,-0.0625,0.0000,-0.0625,0.0000,0.0000,0.0000,16382.0000,167.0000,-206.0000,0.0000,-0.1578
11576735,101288.640625,20.410000,3.027545,0.2300,0.1900,9.5800,0.0625,0.0625,-0.0625,0.0000,0.0000,0.0000,16382.0000,167.0000,-206.0000,0.0000,-0.1709
11607010,101292.546875,20.410000,2.702234,0.2500,0.1800,9.5600,0.1250,-0.1875,0.0000,0.0000,0.0000,0.0000,16382.0000,167.0000,-206.0000,0.0000,-0.2729
11638347,101304.289062,20.410000,1.724328,0.2400,0.1800,9.5700,0.0000,-0.1875,0.0000,0.0000,0.0000,0.0000,16382.0000,167.0000,-206.0000,0.0000,-0.3985
11667911,101278.656250,20.400000,3.859169,0.2400,0.1900,9.5800,0.0625,-0.0625,0.0000,0.0000,0.0000,0.0000,16382.0000,167.0000,-206.0000,0.0000,-0.2832
11697443,101288.640625,20.410000,3.027545,0.2300,0.1800,9.5700,0.0000,0.0625,0.0000,0.0000,0.0000,0.0000,16382.0000,167.0000,-206.0000,0.0000,-0.2933
11728809,101298.617188,20.410000,2.197005,0.2400,0.1900,9.5800,-0.0625,0.1250,0.1250,0.0000,0.0000,0.0000,16382.0000,167.0000,-206.0000,0.0000,-0.3495
11758393,101284.718750,20.410000,3.354392,0.2400,0.1900,9.5600,0.1250,0.0625,-0.0625,0.0000,0.0000,0.0000,16382.0000,167.0000,-206.0000,0.0000,-0.2576
11787957,101287.562500,20.400000,3.117516,0.2400,0.2000,9.5500,0.1250,0.0000,0.0625,0.0000,0.0000,0.0000,16382.0000,167.0000,-206.0000,0.0000,-0.1799
11817698,101287.562500,20.400000,3.117516,0.2100,0.2000,9.5600,0.1250,0.1250,-0.0625,0.0000,0.0000,0.0000,16382.0000,167.0000,-206.0000,0.0000,-0.1835
11848991,101288.640625,20.410000,3.027545,0.2400,0.1900,9.5900,-0.0625,-0.0625,-0.1250,0.0000,0.0000,0.0000,16382.0000,167.0000,-206.0000,0.0000,-0.1226
11878589,101303.210938,20.400000,1.814287,0.2600,0.2100,9.5600,0.0000,0.1875,0.0625,0.0000,0.0000,0.0000,16382.0000,167.0000,-206.0000,0.0000,-0.2255
11908142,101288.640625,20.410000,3.027545,0.2300,0.1700,9.5600,0.0000,0.1250,-0.0625,0.0000,0.0000,0.0000,16382.0000,167.0000,-206.0000,0.0000,-0.1746
11947505,101289.710938,20.410000,2.938592,0.2500,0.1900,9.5500,0.0000,0.0625,-0.0625,0.0000,0.0000,0.0000,16382.0000,167.0000,-206.0000,0.0000,-0.0477
11977944,101288.640625,20.410000,3.027545,0.2400,0.1800,9.5500,-0.0625,0.0000,-0.0625,0.0000,0.0000,0.0000,16382.0000,167.0000,-206.0000,0.0000,-0.1385
12008209,101290.789062,20.410000,2.848623,0.2400,0.1900,9.6000,-0.0625,0.1875,-0.0625,0.0000,0.0000,0.0000,16382.0000,167.0000,-206.0000,0.0000,-0.1670
12038294,101294.710938,20.410000,2.522300,0.2200,0.1900,9.5700,0.0000,0.2500,0.0625,0.0000,0.0000,0.0000,16382.0000,167.0000,-206.0000,0.0000,-0.1273
12069659,101288.640625,20.410000,3.027545,0.2200,0.2000,9.5600,0.0000,0.0625,-0.0625,0.0000,0.0000,0.0000,16382.0000,167.0000,-206.0000,0.0000,-0.1564
12099218,101273.671875,20.389999,4.274498,0.2200,0.2100,9.5800,-0.0625,0.0625,0.0000,0.0000,0.0000,0.0000,16382.0000,167.0000,-206.0000,0.0000,-0.0780
12128766,101287.562500,20.400000,3.117516,0.2300,0.1900,9.5800,0.0625,0.0625,-0.0625,0.0000,0.0000,0.0000,16382.0000,167.0000,-206.0000,0.0000,-0.0744
12160075,101290.789062,20.410000,2.848623,0.2300,0.1800,9.5900,0.0625,-0.0625,0.0000,0.0000,0.0000,0.0000,16382.0000,167.0000,-206.0000,0.0000,-0.0833
12189649,101293.632812,20.410000,2.611758,0.2300,0.1700,9.5700,-0.1875,0.1875,0.0625,0.0000,0.0000,0.0000,16382.0000,167.0000,-206.0000,0.0000,0.0084
12219223,101298.617188,20.410000,2.197005,0.2200,0.2000,9.5600,-0.1250,0.1250,0.0000,0.0000,0.0000,0.0000,16382.0000,167.0000,-206.0000,0.0000,-0.0563
12250556,101288.640625,20.410000,3.027545,0.2400,0.1900,9.5700,-0.1250,0.0625,-0.1875,0.0000,0.0000,0.0000,16382.0000,167.0000,-206.0000,0.0000,-0.0532
12280118,101296.460938,20.410000,2.376424,0.2300,0.1700,9.5700,0.0625,-0.0625,0.0625,0.0000,0.0000,0.0000,16382.0000,167.0000,-206.0000,0.0000,-0.1183
12309684,101280.812500,20.410000,3.679724,0.2500,0.1800,9.5900,-0.0625,0.0625,-0.0625,0.0000,0.0000,0.0000,16382.0000,167.0000,-206.0000,0.0000,-0.0429
12339243,101293.632812,20.410000,2.611758,0.2500,0.2000,9.5600,-0.1250,0.0625,0.0625,0.0000,0.0000,0.0000,16382.0000,167.0000,-206.0000,0.0000,-0.0220
12378729,101294.710938,20.410000,2.522300,0.2200,0.1800,9.6000,-0.1250,-0.1250,0.1250,0.0000,0.0000,0.0000,16382.0000,167.0000,-206.0000,0.0000,-0.0654
12409174,101289.710938,20.410000,2.938592,0.2400,0.1900,9.5700,-0.1875,-0.1250,-0.0625,0.0000,0.0000,0.0000,16382.0000,167.0000,-206.0000,0.0000,-0.1870
12439462,101289.710938,20.410000,2.938592,0.2500,0.2000,9.5700,-0.1250,0.0625,-0.0625,0.0000,0.0000,0.0000,16382.0000,167.0000,-206.0000,0.0000,-0.1930
12470873,101284.718750,20.410000,3.354392,0.2300,0.1900,9.5700,0.0000,0.0000,-0.0625,0.0000,0.0000,0.0000,16382.0000,167.0000,-206.0000,0.0000,-0.1454
12500408,101300.382812,20.410000,2.049608,0.2500,0.2000,9.6000,0.0000,0.0625,-0.0625,0.0000,0.0000,0.0000,16382.0000,167.0000,-206.0000,0.0000,-0.1933
12529973,101294.710938,20.410000,2.522300,0.2500,0.1900,9.5900,0.0000,0.1875,0.0000,0.0000,0.0000,0.0000,16382.0000,167.0000,-206.0000,0.0000,-0.1536
12559855,101290.789062,20.410000,2.848623,0.2500,0.1900,9.5700,-0.0625,0.1250,0.0000,0.0000,0.0000,0.0000,16382.0000,167.0000,-206.0000,0.0000,-0.1614
12591194,101290.789062,20.410000,2.848623,0.2400,0.1700,9.5700,-0.1875,0.1875,0.0000,0.0000,0.0000,0.0000,16382.0000,167.0000,-206.0000,0.0000,-0.1005
12620750,101287.562500,20.400000,3.117516,0.2200,0.2000,9.5600,0.0000,0.0625,0.1250,0.0000,0.0000,0.0000,16382.0000,167.0000,-206.0000,0.0000,-0.1567
12650256,101292.546875,20.410000,2.702234,0.2200,0.2000,9.5900,0.0625,-0.0625,0.0000,0.0000,0.0000,0.0000,16382.0000,167.0000,-206.0000,0.0000,-0.1310
12681624,101291.867188,20.420000,2.758654,0.2400,0.1900,9.5600,0.0000,0.1875,-0.0625,0.0000,0.0000,0.0000,16382.0000,167.0000,-206.0000,0.0000,-0.1049
12711186,101292.953125,20.420000,2.668687,0.2400,0.1600,9.5700,0.0000,0.0000,0.1250,0.0000,0.0000,0.0000,16382.0000,167.0000,-206.0000,0.0000,-0.1117
12740703,101290.789062,20.410000,2.848623,0.2500,0.1900,9.5700,0.0000,0.0625,0.0625,0.0000,0.0000,0.0000,16382.0000,167.0000,-206.0000,0.0000,-0.1171
12781919,101286.882812,20.410000,3.173939,0.2300,0.1800,9.5700,0.0625,0.0625,0.1250,0.0000,0.0000,0.0000,16382.0000,167.0000,-206.0000,0.0000,-0.1179
12811464,101281.890625,20.410000,3.589748,0.2400,0.1800,9.5800,-0.0625,-0.0625,0.0000,0.0000,0.0000,0.0000,16382.0000,167.0000,-206.0000,0.0000,0.0267
12850605,101291.867188,20.420000,2.758654,0.2600,0.1900,9.5900,0.0625,-0.0625,-0.0625,0.0000,0.0000,0.0000,16382.0000,167.0000,-206.0000,0.0000,0.0724
13020712,101291.867188,20.420000,2.758654,0.2300,0.1700,9.6000,-0.0625,0.1250,0.1250,0.0000,0.0000,0.0000,16382.0000,167.0000,-206.0000,0.0000,0.0705
13052017,101284.718750,20.410000,3.354392,0.2300,0.1900,9.5800,-0.0625,-0.1250,0.0625,0.0000,0.0000,0.0000,16382.0000,167.0000,-206.0000,0.0000,0.1063
13081577,101290.789062,20.410000,2.848623,0.2200,0.2000,9.6000,0.0000,-0.1250,0.0000,0.0000,0.0000,0.0000,16382.0000,167.0000,-206.0000,0.0000,0.0847
13111445,101291.867188,20.420000,2.758654,0.2300,0.1900,9.5700,0.0000,0.0000,0.0000,0.0000,0.0000,0.0000,16382.0000,167.0000,-206.0000,0.0000,0.0922
13142759,101282.968750,20.410000,3.499774,0.2400,0.2000,9.5800,0.0625,-0.0625,-0.0625,0.0000,0.0000,0.0000,16382.0000,167.0000,-206.0000,0.0000,0.1438
13172355,101286.882812,20.410000,3.173939,0.2300,0.2000,9.5800,0.0625,0.0625,0.0625,0.0000,0.0000,0.0000,16382.0000,167.0000,-206.0000,0.0000,0.1784
13201922,101301.851562,20.430000,1.927627,0.2500,0.1900,9.5900,-0.1250,0.0625,-0.0625,0.0000,0.0000,0.0000,16382.0000,167.0000,-206.0000,0.0000,0.1119
13231781,101292.953125,20.420000,2.668687,0.2200,0.1800,9.5600,-0.0625,0.0000,-0.1250,0.0000,0.0000,0.0000,16382.0000,167.0000,-206.0000,0.0000,0.0591
13263164,101282.968750,20.410000,3.499774,0.2200,0.1900,9.5700,0.0000,-0.1250,-0.0625,0.0000,0.0000,0.0000,16382.0000,167.0000,-206.0000,0.0000,0.0407
13292715,101292.953125,20.420000,2.668687,0.2400,0.2000,9.5700,-0.0625,0.0625,0.0000,0.0000,0.0000,0.0000,16382.0000,167.0000,-206.0000,0.0000,0.0324
13322286,101292.953125,20.420000,2.668687,0.2500,0.1900,9.5600,0.0625,-0.0625,0.0000,0.0000,0.0000,0.0000,16382.0000,167.0000,-206.0000,0.0000,0.0045
13361748,101290.789062,20.410000,2.848623,0.2300,0.1900,9.5600,0.0000,0.1250,0.0625,0.0000,0.0000,0.0000,16382.0000,167.0000,-206.0000,0.0000,-0.0259
13392305,101281.890625,20.410000,3.589748,0.2200,0.1700,9.6000,0.0000,-0.0625,0.0000,0.0000,0.0000,0.0000,16382.0000,167.0000,-206.0000,0.0000,0.0370
13422418,101290.789062,20.410000,2.848623,0.2300,0.1900,9.5900,0.0000,0.0625,0.0000,0.0000,0.0000,0.0000,16382.0000,167.0000,-206.0000,0.0000,0.0329
13454320,101288.640625,20.410000,3.027545,0.2400,0.2000,9.5800,-0.0625,0.1250,0.0000,0.0000,0.0000,0.0000,16382.0000,167.0000,-206.0000,0.0000,-0.0077
13484316,101292.953125,20.420000,2.668687,0.2300,0.1800,9.5900,0.0000,0.0625,0.0000,0.0000,0.0000,0.0000,16382.0000,167.0000,-206.0000,0.0000,-0.0493
13514391,101286.882812,20.410000,3.173939,0.2400,0.1700,9.5800,-0.1250,0.0625,0.0000,0.0000,0.0000,0.0000,16382.0000,167.0000,-206.0000,0.0000,0.0742
13544442,101292.546875,20.410000,2.702234,0.2400,0.2000,9.5500,0.0000,-0.0625,0.0000,0.0000,0.0000,0.0000,16382.0000,167.0000,-206.0000,0.0000,0.0841
13578716,101291.867188,20.420000,2.758654,0.2300,0.1900,9.5800,0.0000,0.1250,-0.0625,0.0000,0.0000,0.0000,16382.0000,167.0000,-206.0000,0.0000,-0.0089
13612370,101289.031250,20.420000,2.995014,0.2200,0.1800,9.5700,-0.1875,0.1250,-0.0625,0.0000,0.0000,0.0000,16382.0000,167.0000,-206.0000,0.0000,0.0244
13642921,101286.882812,20.410000,3.173939,0.2400,0.1700,9.5700,-0.0625,0.0625,0.0000,0.0000,0.0000,0.0000,16382.0000,167.0000,-206.0000,0.0000,0.0702
13674722,101292.953125,20.420000,2.668687,0.2300,0.2100,9.5800,-0.0625,0.2500,-0.0625,0.0000,0.0000,0.0000,16382.0000,167.0000,-206.0000,0.0000,0.0594
13704764,101286.882812,20.410000,3.173939,0.2200,0.1900,9.5800,0.0000,0.0000,0.0000,0.0000,0.0000,0.0000,16382.0000,167.0000,-206.0000,0.0000,0.0113
13734771,101291.867188,20.420000,2.758654,0.2300,0.1700,9.5700,0.0000,0.0000,0.0625,0.0000,0.0000,0.0000,16382.0000,167.0000,-206.0000,0.0000,-0.0025
13764788,101300.773438,20.420000,2.017080,0.2400,0.2000,9.5800,0.0000,-0.1250,0.0000,0.0000,0.0000,0.0000,16382.0000,167.0000,-206.0000,0.0000,-0.0833
13803275,101286.882812,20.410000,3.173939,0.2400,0.2000,9.5800,0.0625,-0.1250,0.0625,0.0000,0.0000,0.0000,16382.0000,167.0000,-206.0000,0.0000,-0.0108
13833674,101280.132812,20.420000,3.736150,0.2400,0.1800,9.5700,-0.0625,-0.1250,0.0625,0.0000,0.0000,0.0000,16382.0000,167.0000,-206.0000,0.0000,0.0331
13863750,101291.867188,20.420000,2.758654,0.2300,0.1800,9.5800,0.0000,-0.1875,0.1250,0.0000,0.0000,0.0000,16382.0000,167.0000,-206.0000,0.0000,0.0405
13895565,101292.953125,20.420000,2.668687,0.2200,0.2000,9.5700,0.0000,-0.0625,-0.0625,0.0000,0.0000,0.0000,16382.0000,167.0000,-206.0000,0.0000,0.0304
13925599,101287.960938,20.420000,3.083968,0.2400,0.1800,9.5700,0.0625,-0.1875,0.1250,0.0000,0.0000,0.0000,16382.0000,167.0000,-206.0000,0.0000,0.0216
13955644,101289.031250,20.420000,2.995014,0.2300,0.1800,9.5900,-0.1250,0.1875,-0.0625,0.0000,0.0000,0.0000,16382.0000,167.0000,-206.0000,0.0000,0.0043
13987461,101300.773438,20.420000,2.017080,0.2300,0.2000,9.5800,-0.1250,-0.0625,0.1250,0.0000,0.0000,0.0000,16382.0000,167.0000,-206.0000,0.0000,-0.0537
14018823,101285.117188,20.420000,3.320843,0.2400,0.1900,9.5800,0.1250,0.0000,0.0000,0.0000,0.0000,0.0000,16382.0000,167.0000,-206.0000,0.0000,-0.0318
14053382,101292.953125,20.420000,2.668687,0.2400,0.2100,9.5800,-0.0625,-0.1250,0.1250,0.0000,0.0000,0.0000,16382.0000,167.0000,-206.0000,0.0000,-0.0419
14084342,101284.039062,20.420000,3.410816,0.2200,0.1700,9.5900,0.1250,-0.0625,-0.0625,0.0000,0.0000,0.0000,16382.0000,167.0000,-206.0000,0.0000,0.0797
14116187,101296.859375,20.420000,2.343387,0.2300,0.1700,9.5700,0.0000,0.0000,-0.0625,0.0000,0.0000,0.0000,16382.0000,167.0000,-206.0000,0.0000,0.0085
14146230,101291.867188,20.420000,2.758654,0.2300,0.1900,9.5700,0.1250,-0.0625,-0.0625,0.0000,0.0000,0.0000,16382.0000,167.0000,-206.0000,0.0000,-0.0856
14176245,101289.031250,20.420000,2.995014,0.2300,0.1800,9.5600,-0.0625,0.0000,0.0000,0.0000,0.0000,0.0000,16382.0000,167.0000,-206.0000,0.0000,-0.0548
14214594,101300.773438,20.420000,2.017080,0.2200,0.1900,9.5800,0.0625,-0.1250,0.0000,0.0000,0.0000,0.0000,16382.0000,167.0000,-206.0000,0.0000,-0.1193
14244907,101289.031250,20.420000,2.995014,0.2400,0.1900,9.5600,0.0000,-0.0625,0.0000,0.0000,0.0000,0.0000,16382.0000,167.0000,-206.0000,0.0000,-0.1377
14275018,101292.953125,20.420000,2.668687,0.2300,0.1900,9.6100,0.0625,-0.1250,0.0625,0.0000,0.0000,0.0000,16382.0000,167.0000,-206.0000,0.0000,-0.1667
14305076,101306.453125,20.410000,1.544411,0.2500,0.1800,9.5800,-0.0625,0.1250,0.0000,0.0000,0.0000,0.0000,16382.0000,167.0000,-206.0000,0.0000,-0.1879
14336899,101281.210938,20.420000,3.646173,0.2200,0.1800,9.5600,-0.0625,0.0625,-0.0625,0.0000,0.0000,0.0000,16382.0000,167.0000,-206.0000,0.0000,-0.1659
14366878,101295.101562,20.430000,2.489770,0.2200,0.1900,9.5700,0.0625,0.1875,-0.1250,0.0000,0.0000,0.0000,16382.0000,167.0000,-206.0000,0.0000,-0.1796
14396954,101297.937500,20.430000,2.253422,0.2100,0.1900,9.5900,-0.0625,-0.0625,-0.1250,0.0000,0.0000,0.0000,16382.0000,167.0000,-206.0000,0.0000,-0.2852
14430199,101285.117188,20.420000,3.320843,0.2500,0.1900,9.5700,-0.0625,-0.1875,0.0000,0.0000,0.0000,0.0000,16382.0000,167.0000,-206.0000,0.0000,-0.2005
14464750,101295.101562,20.430000,2.489770,0.2300,0.1900,9.5700,0.0625,-0.1250,-0.0625,0.0000,0.0000,0.0000,16382.0000,167.0000,-206.0000,0.0000,-0.2202
14495475,101289.031250,20.420000,2.995014,0.2200,0.1800,9.5800,-0.0625,-0.0625,-0.0625,0.0000,0.0000,0.0000,16382.0000,167.0000,-206.0000,0.0000,-0.2166
14527305,101285.117188,20.420000,3.320843,0.2300,0.2000,9.6100,0.0625,0.0000,0.0625,0.0000,0.0000,0.0000,16382.0000,167.0000,-206.0000,0.0000,-0.0809
14557404,101286.203125,20.430000,3.230362,0.2300,0.1800,9.5500,0.0000,-0.1250,0.0000,0.0000,0.0000,0.0000,16382.0000,167.0000,-206.0000,0.0000,-0.0668
14587437,101286.203125,20.430000,3.230362,0.2300,0.1900,9.6100,0.0000,-0.0625,0.0625,0.0000,0.0000,0.0000,16382.0000,167.0000,-206.0000,0.0000,-0.0200
14647663,101295.101562,20.430000,2.489770,0.2500,0.1900,9.5600,0.0000,-0.0625,0.0000,0.0000,0.0000,0.0000,16382.0000,167.0000,-206.0000,0.0000,0.0918
14686041,101291.867188,20.420000,2.758654,0.2400,0.1900,9.6000,-0.0625,0.0625,0.0000,0.0000,0.0000,0.0000,16382.0000,167.0000,-206.0000,0.0000,0.0048
14716340,101294.023438,20.430000,2.579228,0.2200,0.2000,9.5800,-0.0625,-0.0625,0.1250,0.0000,0.0000,0.0000,16382.0000,167.0000,-206.0000,0.0000,0.0174
14746437,101285.117188,20.420000,3.320843,0.2200,0.1900,9.5900,0.0625,0.0000,-0.1250,0.0000,0.0000,0.0000,16382.0000,167.0000,-206.0000,0.0000,0.1277
14778260,101289.031250,20.420000,2.995014,0.2600,0.1900,9.5800,-0.1250,0.0000,0.1250,0.0000,0.0000,0.0000,16382.0000,167.0000,-206.0000,0.0000,0.0987
14808356,101287.273438,20.430000,3.141407,0.2500,0.2000,9.5600,0.0000,-0.0625,0.0625,0.0000,0.0000,0.0000,16382.0000,167.0000,-206.0000,0.0000,0.1396
14838390,101305.757812,20.430000,1.602350,0.2200,0.2000,9.5500,-0.0625,-0.0625,-0.0625,0.0000,0.0000,0.0000,16382.0000,167.0000,-206.0000,0.0000,0.0216
14868427,101302.929688,20.430000,1.837667,0.2200,0.2000,9.5700,0.0625,0.0625,0.0000,0.0000,0.0000,0.0000,16382.0000,167.0000,-206.0000,0.0000,-0.0934
14902270,101296.859375,20.420000,2.343387,0.2300,0.1800,9.5700,0.0000,-0.1875,-0.0625,0.0000,0.0000,0.0000,16382.0000,167.0000,-206.0000,0.0000,-0.1756
14936149,101291.867188,20.420000,2.758654,0.2300,0.1900,9.5600,-0.0625,0.1250,-0.1250,0.0000,0.0000,0.0000,16382.0000,167.0000,-206.0000,0.0000,-0.2246
14966887,101292.953125,20.420000,2.668687,0.2400,0.1800,9.5700,-0.0625,-0.0625,0.0000,0.0000,0.0000,0.0000,16382.0000,167.0000,-206.0000,0.0000,-0.2031
14998743,101291.187500,20.430000,2.815583,0.2200,0.1800,9.5800,0.0000,-0.0625,-0.1250,0.0000,0.0000,0.0000,16382.0000,167.0000,-206.0000,0.0000,-0.1819
15028763,101300.773438,20.420000,2.017080,0.2200,0.1800,9.5800,0.0000,-0.0625,-0.1250,0.0000,0.0000,0.0000,16382.0000,167.0000,-206.0000,0.0000,-0.2215
15058789,101285.117188,20.420000,3.320843,0.2400,0.2000,9.5800,0.0625,0.0625,0.0000,0.0000,0.0000,0.0000,16382.0000,167.0000,-206.0000,0.0000,-0.2274
15097286,101284.039062,20.420000,3.410816,0.2400,0.2000,9.5700,0.0000,-0.0625,0.0000,0.0000,0.0000,0.0000,16382.0000,167.0000,-206.0000,0.0000,-0.2006
15127593,101292.953125,20.420000,2.668687,0.2300,0.1900,9.5600,0.0625,0.0625,0.0000,0.0000,0.0000,0.0000,16382.0000,167.0000,-206.0000,0.0000,-0.2378
15157643,101287.273438,20.430000,3.141407,0.2300,0.1800,9.5800,-0.0625,-0.0625,0.0000,0.0000,0.0000,0.0000,16382.0000,167.0000,-206.0000,0.0000,-0.0927
15187750,101285.117188,20.420000,3.320843,0.2300,0.1900,9.5800,-0.0625,0.0625,0.0625,0.0000,0.0000,0.0000,16382.0000,167.0000,-206.0000,0.0000,0.0444
15219586,101285.117188,20.420000,3.320843,0.2300,0.1900,9.5600,-0.0625,-0.0625,-0.1250,0.0000,0.0000,0.0000,16382.0000,167.0000,-206.0000,0.0000,0.1356
15249638,101294.023438,20.430000,2.579228,0.2300,0.1900,9.5900,0.0625,0.2500,0.0000,0.0000,0.0000,0.0000,16382.0000,167.0000,-206.0000,0.0000,0.1296
15279659,101281.210938,20.420000,3.646173,0.2200,0.1800,9.5900,0.0625,-0.0625,0.0625,0.0000,0.0000,0.0000,16382.0000,167.0000,-206.0000,0.0000,0.2078
15313305,101294.023438,20.430000,2.579228,0.2400,0.1900,9.6000,0.0000,-0.0625,0.1250,0.0000,0.0000,0.0000,16382.0000,167.0000,-206.0000,0.0000,0.1960
15347501,101295.101562,20.430000,2.489770,0.2600,0.2000,9.5800,0.0000,0.0000,-0.1250,0.0000,0.0000,0.0000,16382.0000,167.0000,-206.0000,0.0000,0.2487
15378270,101285.117188,20.420000,3.320843,0.2300,0.1900,9.5600,0.0000,-0.0625,0.0000,0.0000,0.0000,0.0000,16382.0000,167.0000,-206.0000,0.0000,0.2226
15410145,101295.101562,20.430000,2.489770,0.2200,0.1900,9.5900,-0.0625,-0.0625,0.0625,0.0000,0.0000,0.0000,16382.0000,167.0000,-206.0000,0.0000,0.1442
15440174,101288.351562,20.440001,3.051436,0.2100,0.1900,9.5600,0.1250,0.0625,0.0000,0.0000,0.0000,0.0000,16382.0000,167.0000,-206.0000,0.0000,0.1961
15470217,101295.101562,20.430000,2.489770,0.2300,0.2000,9.5600,0.1250,0.2500,-0.1875,0.0000,0.0000,0.0000,16382.0000,167.0000,-206.0000,0.0000,0.1364
15500266,101295.101562,20.430000,2.489770,0.2500,0.1800,9.5600,0.0000,-0.1250,-0.0625,0.0000,0.0000,0.0000,16382.0000,167.0000,-206.0000,0.0000,0.0568
15538564,101297.937500,20.430000,2.253422,0.2400,0.1900,9.5800,0.1250,0.1875,-0.1250,0.0000,0.0000,0.0000,16382.0000,167.0000,-206.0000,0.0000,-0.0333
15568934,101287.273438,20.430000,3.141407,0.2300,0.2000,9.5800,0.0000,0.0000,0.0000,0.0000,0.0000,0.0000,16382.0000,167.0000,-206.0000,0.0000,0.0200
15599050,101292.953125,20.420000,2.668687,0.2300,0.2100,9.5900,-0.0625,0.0000,-0.1250,0.0000,0.0000,0.0000,16382.0000,167.0000,-206.0000,0.0000,-0.0908
15630855,101287.273438,20.430000,3.141407,0.2100,0.1900,9.5600,-0.1250,0.0625,0.0000,0.0000,0.0000,0.0000,16382.0000,167.0000,-206.0000,0.0000,-0.0310
15660924,101288.351562,20.440001,3.051436,0.2500,0.2000,9.5700,0.0000,0.0000,-0.1250,0.0000,0.0000,0.0000,16382.0000,167.0000,-206.0000,0.0000,0.0175
15690944,101289.429688,20.440001,2.961974,0.2400,0.1600,9.5700,-0.0625,0.1250,0.0625,0.0000,0.0000,0.0000,16382.0000,167.0000,-206.0000,0.0000,-0.0094
15720978,101292.273438,20.440001,2.725107,0.2300,0.1900,9.5600,0.0000,0.1875,0.0625,0.0000,0.0000,0.0000,16382.0000,167.0000,-206.0000,0.0000,0.0065
15754078,101289.429688,20.440001,2.961974,0.2200,0.1900,9.5700,0.0000,-0.0625,0.0625,0.0000,0.0000,0.0000,16382.0000,167.0000,-206.0000,0.0000,-0.0065
15788666,101291.187500,20.430000,2.815583,0.2300,0.2000,9.5500,-0.0625,0.0625,-0.0625,0.0000,0.0000,0.0000,16382.0000,167.0000,-206.0000,0.0000,0.0297
15819596,101280.523438,20.440001,3.703616,0.2400,0.2000,9.5400,0.0000,0.0000,-0.0625,0.0000,0.0000,0.0000,16382.0000,167.0000,-206.0000,0.0000,0.1173
15851429,101288.351562,20.440001,3.051436,0.2500,0.1800,9.5800,0.1250,-0.0625,0.0625,0.0000,0.0000,0.0000,16382.0000,167.0000,-206.0000,0.0000,0.1960
15881520,101289.429688,20.440001,2.961974,0.2400,0.2000,9.5700,0.0000,-0.1875,0.1250,0.0000,0.0000,0.0000,16382.0000,167.0000,-206.0000,0.0000,0.1722
15911521,101289.429688,20.440001,2.961974,0.2300,0.1900,9.5700,-0.0625,0.0625,0.0625,0.0000,0.0000,0.0000,16382.0000,167.0000,-206.0000,0.0000,0.1732
15941582,101297.257812,20.440001,2.309840,0.2300,0.2000,9.5400,-0.1250,-0.1250,0.1250,0.0000,0.0000,0.0000,16382.0000,167.0000,-206.0000,0.0000,0.1167
15979927,101289.429688,20.440001,2.961974,0.2400,0.1900,9.5900,0.0625,0.0000,0.0625,0.0000,0.0000,0.0000,16382.0000,167.0000,-206.0000,0.0000,0.0983
16010295,101289.429688,20.440001,2.961974,0.2400,0.1900,9.5700,-0.0625,0.0000,0.0000,0.0000,0.0000,0.0000,16382.0000,167.0000,-206.0000,0.0000,0.0842
16040401,101289.429688,20.440001,2.961974,0.2500,0.2000,9.5800,0.0625,0.0000,0.1250,0.0000,0.0000,0.0000,16382.0000,167.0000,-206.0000,0.0000,0.1150
16072249,101288.351562,20.440001,3.051436,0.2200,0.1800,9.5800,-0.1250,0.1250,-0.0625,0.0000,0.0000,0.0000,16382.0000,167.0000,-206.0000,0.0000,0.1127
16102258,101289.429688,20.440001,2.961974,0.2400,0.1900,9.5700,0.0625,0.0000,0.0000,0.0000,0.0000,0.0000,16382.0000,167.0000,-206.0000,0.0000,0.1280
16132359,101294.421875,20.450001,2.546190,0.2400,0.2000,9.5600,-0.0625,0.0000,0.1250,0.0000,0.0000,0.0000,16382.0000,167.0000,-206.0000,0.0000,0.0278
16166363,101284.437500,20.440001,3.377775,0.2400,0.1900,9.5500,0.0000,0.0000,0.0625,0.0000,0.0000,0.0000,16382.0000,167.0000,-206.0000,0.0000,0.0575
16200178,101291.187500,20.430000,2.815583,0.2200,0.2000,9.5900,0.0000,0.0000,-0.0625,0.0000,0.0000,0.0000,16382.0000,167.0000,-206.0000,0.0000,0.0511
16260710,101295.101562,20.430000,2.489770,0.2600,0.1900,9.6000,0.1250,-0.1250,0.0000,0.0000,0.0000,0.0000,16382.0000,167.0000,-206.0000,0.0000,0.0039
16291338,101292.273438,20.440001,2.725107,0.2300,0.1900,9.5800,-0.1250,-0.0625,0.0000,0.0000,0.0000,0.0000,16382.0000,167.0000,-206.0000,0.0000,0.0461
16323161,101297.257812,20.440001,2.309840,0.2200,0.1900,9.5600,-0.0625,-0.0625,-0.1250,0.0000,0.0000,0.0000,16382.0000,167.0000,-206.0000,0.0000,-0.0137
16353212,101293.343750,20.440001,2.636156,0.2500,0.2000,9.5800,0.1250,0.0625,0.0000,0.0000,0.0000,0.0000,16382.0000,167.0000,-206.0000,0.0000,-0.0326
16383212,101288.351562,20.440001,3.051436,0.2400,0.1900,9.5700,0.0000,0.0000,0.0000,0.0000,0.0000,0.0000,16382.0000,167.0000,-206.0000,0.0000,-0.0248
16421396,101290.507812,20.450001,2.872005,0.2100,0.1800,9.5800,0.0000,0.0000,-0.0625,0.0000,0.0000,0.0000,16382.0000,167.0000,-206.0000,0.0000,-0.0373
16451634,101289.429688,20.440001,2.961974,0.2300,0.1700,9.5700,-0.0625,0.0000,-0.0625,0.0000,0.0000,0.0000,16382.0000,167.0000,-206.0000,0.0000,-0.0645
16481772,101288.351562,20.440001,3.051436,0.2500,0.1800,9.5700,-0.0625,0.1875,-0.0625,0.0000,0.0000,0.0000,16382.0000,167.0000,-206.0000,0.0000,-0.0383
16511879,101293.343750,20.440001,2.636156,0.2300,0.1900,9.5500,-0.1250,0.1250,-0.0625,0.0000,0.0000,0.0000,16382.0000,167.0000,-206.0000,0.0000,-0.1183
16543663,101297.257812,20.440001,2.309840,0.2300,0.1900,9.5800,-0.0625,0.0625,0.0000,0.0000,0.0000,0.0000,16382.0000,167.0000,-206.0000,0.0000,-0.1599
16573749,101286.593750,20.450001,3.197830,0.2300,0.1900,9.5800,-0.1875,-0.0625,-0.0625,0.0000,0.0000,0.0000,16382.0000,167.0000,-206.0000,0.0000,-0.0997
16603738,101290.507812,20.450001,2.872005,0.2400,0.1900,9.5900,-0.1250,-0.0625,0.0625,0.0000,0.0000,0.0000,16382.0000,167.0000,-206.0000,0.0000,-0.0861
16637413,101289.429688,20.440001,2.961974,0.2400,0.1900,9.5900,0.0000,-0.0625,0.0000,0.0000,0.0000,0.0000,16382.0000,167.0000,-206.0000,0.0000,-0.0398
16671414,101293.343750,20.440001,2.636156,0.2400,0.1800,9.5700,-0.1250,0.1250,-0.0625,0.0000,0.0000,0.0000,16382.0000,167.0000,-206.0000,0.0000,-0.0261
16702189,101297.257812,20.440001,2.309840,0.2400,0.1900,9.5800,0.0000,0.1250,0.0000,0.0000,0.0000,0.0000,16382.0000,167.0000,-206.0000,0.0000,-0.0782
16734025,101289.429688,20.440001,2.961974,0.2400,0.2100,9.5400,-0.1250,-0.0625,0.0625,0.0000,0.0000,0.0000,16382.0000,167.0000,-206.0000,0.0000,-0.0751
16764059,101288.351562,20.440001,3.051436,0.2300,0.1900,9.5700,0.0625,0.0000,0.0000,0.0000,0.0000,0.0000,16382.0000,167.0000,-206.0000,0.0000,-0.0644
16794098,101289.429688,20.440001,2.961974,0.2200,0.1800,9.5600,-0.0625,0.0000,0.0000,0.0000,0.0000,0.0000,16382.0000,167.0000,-206.0000,0.0000,-0.0661
16824147,101293.343750,20.440001,2.636156,0.2200,0.2000,9.5900,0.0625,-0.0625,0.0000,0.0000,0.0000,0.0000,16382.0000,167.0000,-206.0000,0.0000,-0.0524
16862641,101285.523438,20.440001,3.287294,0.2200,0.1900,9.5600,0.0000,0.1250,0.0625,0.0000,0.0000,0.0000,16382.0000,167.0000,-206.0000,0.0000,0.0311
16892984,101289.429688,20.440001,2.961974,0.2400,0.1800,9.5800,0.0625,-0.3750,0.0625,0.0000,0.0000,0.0000,16382.0000,167.0000,-206.0000,0.0000,0.0212
16923113,101285.523438,20.440001,3.287294,0.2200,0.1900,9.5800,0.0000,0.0000,0.1250,0.0000,0.0000,0.0000,16382.0000,167.0000,-206.0000,0.0000,0.0486
16954945,101298.328125,20.450001,2.220893,0.2300,0.1900,9.5600,0.0625,0.0000,0.1875,0.0000,0.0000,0.0000,16382.0000,167.0000,-206.0000,0.0000,-0.0201
16984944,101281.601562,20.440001,3.613640,0.2300,0.1900,9.5700,0.0625,0.0000,0.0625,0.0000,0.0000,0.0000,16382.0000,167.0000,-206.0000,0.0000,0.0718
17015010,101285.523438,20.440001,3.287294,0.2200,0.2000,9.5900,0.1250,0.0625,0.0625,0.0000,0.0000,0.0000,16382.0000,167.0000,-206.0000,0.0000,0.1536
17045047,101280.523438,20.440001,3.703616,0.2400,0.2000,9.5700,0.1250,-0.0625,0.0625,0.0000,0.0000,0.0000,16382.0000,167.0000,-206.0000,0.0000,0.2147
17078122,101294.421875,20.450001,2.546190,0.2300,0.1800,9.5500,-0.0625,0.1250,0.0625,0.0000,0.0000,0.0000,16382.0000,167.0000,-206.0000,0.0000,0.1630
17112691,101289.429688,20.440001,2.961974,0.2200,0.1900,9.5800,0.0625,0.1250,0.0000,0.0000,0.0000,0.0000,16382.0000,167.0000,-206.0000,0.0000,0.1536
17143621,101289.429688,20.440001,2.961974,0.2300,0.1900,9.5800,0.0000,-0.0625,0.0000,0.0000,0.0000,0.0000,16382.0000,167.0000,-206.0000,0.0000,0.1720
17175433,101290.507812,20.450001,2.872005,0.2400,0.1800,9.5800,-0.1250,-0.0625,0.0000,0.0000,0.0000,0.0000,16382.0000,167.0000,-206.0000,0.0000,0.1359
17205470,101288.351562,20.440001,3.051436,0.2200,0.1900,9.5700,-0.1250,0.1250,-0.0625,0.0000,0.0000,0.0000,16382.0000,167.0000,-206.0000,0.0000,0.1372
17235501,101288.351562,20.440001,3.051436,0.2500,0.2100,9.5700,-0.0625,-0.1250,-0.1875,0.0000,0.0000,0.0000,16382.0000,167.0000,-206.0000,0.0000,0.1154
17273972,101287.273438,20.430000,3.141407,0.2300,0.2000,9.5800,0.0625,0.0625,0.0625,0.0000,0.0000,0.0000,16382.0000,167.0000,-206.0000,0.0000,0.2056
17304268,101296.179688,20.440001,2.399805,0.2400,0.1900,9.5600,0.0000,-0.1875,-0.2500,0.0000,0.0000,0.0000,16382.0000,167.0000,-206.0000,0.0000,0.0955
17334446,101279.453125,20.430000,3.792576,0.2400,0.1800,9.5900,-0.0625,-0.1250,0.0000,0.0000,0.0000,0.0000,16382.0000,167.0000,-206.0000,0.0000,0.1247
17364471,101288.351562,20.440001,3.051436,0.2100,0.1800,9.6000,-0.1250,0.0625,0.0000,0.0000,0.0000,0.0000,16382.0000,167.0000,-206.0000,0.0000,0.0577
17396347,101284.437500,20.440001,3.377775,0.2200,0.1800,9.5700,0.0625,-0.0625,-0.0625,0.0000,0.0000,0.0000,16382.0000,167.0000,-206.0000,0.0000,0.1296
17426350,101291.187500,20.430000,2.815583,0.2400,0.1800,9.5900,0.0625,0.0000,0.0000,0.0000,0.0000,0.0000,16382.0000,167.0000,-206.0000,0.0000,0.1327
17456401,101297.257812,20.440001,2.309840,0.2400,0.1900,9.5800,0.0000,0.0625,0.0000,0.0000,0.0000,0.0000,16382.0000,167.0000,-206.0000,0.0000,0.0823
17490464,101281.601562,20.440001,3.613640,0.2400,0.1900,9.5800,0.0625,0.0000,0.0000,0.0000,0.0000,0.0000,16382.0000,167.0000,-206.0000,0.0000,0.1434
17524296,101281.601562,20.440001,3.613640,0.2400,0.1700,9.6000,0.0625,0.0000,-0.1250,0.0000,0.0000,0.0000,16382.0000,167.0000,-206.0000,0.0000,0.1866
17555078,101296.179688,20.440001,2.399805,0.2400,0.1900,9.5800,-0.0625,-0.0625,0.1250,0.0000,0.0000,0.0000,16382.0000,167.0000,-206.0000,0.0000,0.1197
17585193,101287.273438,20.430000,3.141407,0.2300,0.1900,9.5900,0.0625,-0.0625,-0.0625,0.0000,0.0000,0.0000,16382.0000,167.0000,-206.0000,0.0000,0.1161
17617022,101288.351562,20.440001,3.051436,0.2500,0.2000,9.5800,0.0000,-0.2500,0.1250,0.0000,0.0000,0.0000,16382.0000,167.0000,-206.0000,0.0000,0.1794
17647040,101287.273438,20.430000,3.141407,0.2400,0.1900,9.5700,-0.0625,-0.1875,0.0000,0.0000,0.0000,0.0000,16382.0000,167.0000,-206.0000,0.0000,0.1107
17677086,101290.507812,20.450001,2.872005,0.2400,0.1700,9.5700,0.0625,-0.0625,0.0000,0.0000,0.0000,0.0000,16382.0000,167.0000,-206.0000,0.0000,0.0964
17715425,101289.429688,20.440001,2.961974,0.2200,0.1900,9.5600,0.0000,0.1250,-0.1250,0.0000,0.0000,0.0000,16382.0000,167.0000,-206.0000,0.0000,0.0548
17745683,101295.101562,20.430000,2.489770,0.2500,0.1800,9.5700,0.0000,0.0625,0.0625,0.0000,0.0000,0.0000,16382.0000,167.0000,-206.0000,0.0000,0.0234
17775783,101281.601562,20.440001,3.613640,0.2500,0.1900,9.5800,0.0625,0.0000,-0.0625,0.0000,0.0000,0.0000,16382.0000,167.0000,-206.0000,0.0000,0.1490
17807548,101290.507812,20.450001,2.872005,0.2400,0.1900,9.5700,0.0000,0.0000,0.0000,0.0000,0.0000,0.0000,16382.0000,167.0000,-206.0000,0.0000,0.0737
17866783,101292.273438,20.440001,2.725107,0.2500,0.2000,9.5700,0.0625,0.0000,0.0000,0.0000,0.0000,0.0000,16382.0000,167.0000,-206.0000,0.0000,-0.0198
17897406,101288.351562,20.440001,3.051436,0.2400,0.2000,9.5500,0.0625,-0.1250,-0.0625,0.0000,0.0000,0.0000,16382.0000,167.0000,-206.0000,0.0000,0.0388
17927462,101293.343750,20.440001,2.636156,0.2200,0.1800,9.5600,0.0000,0.1875,-0.0625,0.0000,0.0000,0.0000,16382.0000,167.0000,-206.0000,0.0000,-0.0183
17959277,101301.171875,20.440001,1.984043,0.2200,0.1900,9.5700,0.0000,0.0000,-0.0625,0.0000,0.0000,0.0000,16382.0000,167.0000,-206.0000,0.0000,-0.1119
17989353,101290.507812,20.450001,2.872005,0.2200,0.2000,9.5700,0.0000,0.0000,0.0000,0.0000,0.0000,0.0000,16382.0000,167.0000,-206.0000,0.0000,-0.1353
18019394,101281.601562,20.440001,3.613640,0.2400,0.1800,9.5700,0.0000,-0.1875,0.0000,0.0000,0.0000,0.0000,16382.0000,167.0000,-206.0000,0.0000,-0.0760
18055776,101283.757812,20.450001,3.434199,0.2400,0.1800,9.5700,0.0000,-0.0625,0.0000,0.0000,0.0000,0.0000,16382.0000,167.0000,-206.0000,0.0000,-0.0382
18086462,101290.507812,20.450001,2.872005,0.2200,0.2000,9.5800,0.0000,0.1250,-0.1250,0.0000,0.0000,0.0000,16382.0000,167.0000,-206.0000,0.0000,0.0036
18116811,101299.406250,20.450001,2.130930,0.2400,0.1900,9.5900,0.0625,-0.0625,0.0000,0.0000,0.0000,0.0000,16382.0000,167.0000,-206.0000,0.0000,-0.1345
18146933,101281.601562,20.440001,3.613640,0.2500,0.1900,9.5600,0.0000,-0.1250,0.1250,0.0000,0.0000,0.0000,16382.0000,167.0000,-206.0000,0.0000,-0.0865
18186523,101299.406250,20.450001,2.130930,0.2200,0.1900,9.5800,-0.0625,0.0000,0.0625,0.0000,0.0000,0.0000,16382.0000,167.0000,-206.0000,0.0000,-0.1245
18217137,101296.578125,20.450001,2.366767,0.2200,0.1900,9.5500,0.0000,0.1875,-0.0625,0.0000,0.0000,0.0000,16382.0000,167.0000,-206.0000,0.0000,-0.1829
18247235,101289.429688,20.440001,2.961974,0.2400,0.1800,9.5800,0.0000,0.1250,0.0000,0.0000,0.0000,0.0000,16382.0000,167.0000,-206.0000,0.0000,-0.1503
18279083,101283.757812,20.450001,3.434199,0.2300,0.1800,9.5500,0.1250,-0.0625,0.0000,0.0000,0.0000,0.0000,16382.0000,167.0000,-206.0000,0.0000,-0.0213
18309137,101287.671875,20.450001,3.108366,0.2500,0.1900,9.5600,0.0000,0.0625,0.0000,0.0000,0.0000,0.0000,16382.0000,167.0000,-206.0000,0.0000,-0.0136
18339192,101292.656250,20.450001,2.693085,0.2500,0.2000,9.5800,-0.1875,0.0000,-0.0625,0.0000,0.0000,0.0000,16382.0000,167.0000,-206.0000,0.0000,-0.1003
18373213,101286.593750,20.450001,3.197830,0.2300,0.2000,9.5500,-0.0625,-0.0625,-0.0625,0.0000,0.0000,0.0000,16382.0000,167.0000,-206.0000,0.0000,-0.1268
18407028,101283.757812,20.450001,3.434199,0.2100,0.1900,9.5800,0.1250,0.0000,-0.0625,0.0000,0.0000,0.0000,16382.0000,167.0000,-206.0000,0.0000,-0.0801
18437802,101291.578125,20.450001,2.783053,0.2400,0.2000,9.5800,-0.0625,-0.0625,0.0000,0.0000,0.0000,0.0000,16382.0000,167.0000,-206.0000,0.0000,-0.0178
18467918,101284.828125,20.450001,3.345242,0.2500,0.2000,9.5800,-0.0625,0.0000,-0.1250,0.0000,0.0000,0.0000,16382.0000,167.0000,-206.0000,0.0000,-0.0458
18499736,101291.578125,20.450001,2.783053,0.2300,0.1800,9.5800,0.0000,0.0000,-0.0625,0.0000,0.0000,0.0000,16382.0000,167.0000,-206.0000,0.0000,0.0230
18529763,101288.750000,20.450001,3.018396,0.2300,0.1800,9.5600,0.0000,0.2500,0.0000,0.0000,0.0000,0.0000,16382.0000,167.0000,-206.0000,0.0000,0.0935
18559814,101291.578125,20.450001,2.783053,0.2500,0.2000,9.5900,0.0000,-0.0625,0.0000,0.0000,0.0000,0.0000,16382.0000,167.0000,-206.0000,0.0000,0.0644
18598143,101283.757812,20.450001,3.434199,0.2200,0.1800,9.5900,-0.0625,0.0625,0.0625,0.0000,0.0000,0.0000,16382.0000,167.0000,-206.0000,0.0000,0.0680
18628423,101287.671875,20.450001,3.108366,0.2200,0.1800,9.5900,0.0625,0.1250,0.0625,0.0000,0.0000,0.0000,16382.0000,167.0000,-206.0000,0.0000,0.0716
18658515,101291.578125,20.450001,2.783053,0.2400,0.1800,9.5600,0.0625,0.0000,-0.0625,0.0000,0.0000,0.0000,16382.0000,167.0000,-206.0000,0.0000,0.0990
18688566,101291.578125,20.450001,2.783053,0.2600,0.2000,9.5600,-0.0625,0.0000,0.0625,0.0000,0.0000,0.0000,16382.0000,167.0000,-206.0000,0.0000,0.0528
18720438,101299.406250,20.450001,2.130930,0.2300,0.2000,9.5700,0.0625,-0.1875,0.1875,0.0000,0.0000,0.0000,16382.0000,167.0000,-206.0000,0.0000,-0.0609
18750495,101283.757812,20.450001,3.434199,0.2300,0.2000,9.5900,0.0000,0.0625,-0.0625,0.0000,0.0000,0.0000,16382.0000,167.0000,-206.0000,0.0000,-0.0053
18780547,101281.601562,20.440001,3.613640,0.2500,0.2000,9.5700,0.0000,-0.1250,0.0000,0.0000,0.0000,0.0000,16382.0000,167.0000,-206.0000,0.0000,0.0067
18814745,101286.593750,20.450001,3.197830,0.2600,0.2000,9.5700,0.0000,-0.0625,-0.0625,0.0000,0.0000,0.0000,16382.0000,167.0000,-206.0000,0.0000,0.0453
18848345,101299.406250,20.450001,2.130930,0.2300,0.1800,9.5800,0.0625,-0.1875,0.1250,0.0000,0.0000,0.0000,16382.0000,167.0000,-206.0000,0.0000,-0.0250
18878921,101286.593750,20.450001,3.197830,0.2400,0.1900,9.5600,-0.0625,-0.0625,0.0000,0.0000,0.0000,0.0000,16382.0000,167.0000,-206.0000,0.0000,0.0153
18910772,101297.257812,20.440001,2.309840,0.2500,0.1900,9.5800,0.0625,0.0000,-0.1250,0.0000,0.0000,0.0000,16382.0000,167.0000,-206.0000,0.0000,-0.0953
18940817,101291.578125,20.450001,2.783053,0.2500,0.1900,9.5700,0.0625,-0.1875,0.0625,0.0000,0.0000,0.0000,16382.0000,167.0000,-206.0000,0.0000,-0.1077
18970852,101291.578125,20.450001,2.783053,0.2200,0.1900,9.5400,0.0000,0.0625,0.0000,0.0000,0.0000,0.0000,16382.0000,167.0000,-206.0000,0.0000,-0.1023
19000887,101283.757812,20.450001,3.434199,0.2400,0.2000,9.5600,-0.1875,-0.1875,-0.1250,0.0000,0.0000,0.0000,16382.0000,167.0000,-206.0000,0.0000,-0.0383
19039351,101292.656250,20.450001,2.693085,0.2500,0.2000,9.5900,0.0000,-0.1250,0.0000,0.0000,0.0000,0.0000,16382.0000,167.0000,-206.0000,0.0000,0.0203
19069648,101290.507812,20.450001,2.872005,0.2300,0.1800,9.5700,0.0000,-0.0625,-0.1250,0.0000,0.0000,0.0000,16382.0000,167.0000,-206.0000,0.0000,-0.0471
19099771,101279.843750,20.450001,3.760042,0.2300,0.1900,9.5600,0.0625,-0.1250,0.0625,0.0000,0.0000,0.0000,16382.0000,167.0000,-206.0000,0.0000,-0.0354
19131546,101299.406250,20.450001,2.130930,0.2300,0.1900,9.5800,0.0625,-0.2500,0.0000,0.0000,0.0000,0.0000,16382.0000,167.0000,-206.0000,0.0000,-0.1124
19161630,101291.578125,20.450001,2.783053,0.2400,0.1800,9.6100,-0.0625,-0.0625,0.0000,0.0000,0.0000,0.0000,16382.0000,167.0000,-206.0000,0.0000,-0.0549
19191726,101287.671875,20.450001,3.108366,0.2400,0.1900,9.5800,0.1250,-0.1250,0.0000,0.0000,0.0000,0.0000,16382.0000,167.0000,-206.0000,0.0000,-0.0632
19221774,101283.757812,20.450001,3.434199,0.2200,0.2000,9.5600,-0.0625,0.0000,0.0000,0.0000,0.0000,0.0000,16382.0000,167.0000,-206.0000,0.0000,0.0416
19255619,101283.757812,20.450001,3.434199,0.2700,0.2000,9.5800,0.0000,0.0000,-0.0625,0.0000,0.0000,0.0000,16382.0000,167.0000,-206.0000,0.0000,0.1009
19289633,101284.828125,20.450001,3.345242,0.2400,0.1900,9.5800,0.0000,0.0000,-0.1250,0.0000,0.0000,0.0000,16382.0000,167.0000,-206.0000,0.0000,0.1476
19320406,101282.679688,20.450001,3.524173,0.2100,0.1800,9.5700,0.0625,0.1875,0.0000,0.0000,0.0000,0.0000,16382.0000,167.0000,-206.0000,0.0000,0.1454
19352246,101292.656250,20.450001,2.693085,0.2500,0.1800,9.5700,0.0000,0.0625,0.0000,0.0000,0.0000,0.0000,16382.0000,167.0000,-206.0000,0.0000,0.1413
19382259,101288.750000,20.450001,3.018396,0.2600,0.1900,9.5600,0.0625,0.0625,0.0625,0.0000,0.0000,0.0000,16382.0000,167.0000,-206.0000,0.0000,0.1678
19412356,101293.742188,20.459999,2.602609,0.2300,0.1900,9.5700,-0.0625,0.0625,-0.0625,0.0000,0.0000,0.0000,16382.0000,167.0000,-206.0000,0.0000,0.0575
19480382,101284.828125,20.450001,3.345242,0.2400,0.1900,9.5400,0.0625,0.0000,-0.0625,0.0000,0.0000,0.0000,16382.0000,167.0000,-206.0000,0.0000,0.1665
19511055,101285.906250,20.459999,3.255270,0.2300,0.2000,9.5700,-0.0625,-0.0625,0.0625,0.0000,0.0000,0.0000,16382.0000,167.0000,-206.0000,0.0000,0.2097
19541057,101293.742188,20.459999,2.602609,0.2300,0.1900,9.5900,0.0625,0.0625,-0.0625,0.0000,0.0000,0.0000,16382.0000,167.0000,-206.0000,0.0000,0.1598
19571181,101296.578125,20.450001,2.366767,0.2300,0.1800,9.5700,0.0000,0.1250,0.0625,0.0000,0.0000,0.0000,16382.0000,167.0000,-206.0000,0.0000,0.0454
19602995,101283.757812,20.450001,3.434199,0.2400,0.2100,9.5600,0.0625,0.0000,0.0625,0.0000,0.0000,0.0000,16382.0000,167.0000,-206.0000,0.0000,0.0341
19633036,101285.906250,20.459999,3.255270,0.2200,0.2000,9.5600,0.0000,0.0625,0.0625,0.0000,0.0000,0.0000,16382.0000,167.0000,-206.0000,0.0000,0.0323
19663057,101283.757812,20.450001,3.434199,0.2200,0.1900,9.5900,-0.0625,-0.1250,-0.0625,0.0000,0.0000,0.0000,16382.0000,167.0000,-206.0000,0.0000,0.0233
19694888,101283.757812,20.450001,3.434199,0.2300,0.1800,9.5600,0.0000,0.1250,0.0000,0.0000,0.0000,0.0000,16382.0000,167.0000,-206.0000,0.0000,0.0862
19726020,101289.828125,20.459999,2.928934,0.2500,0.1900,9.5600,0.0625,-0.1250,0.0000,0.0000,0.0000,0.0000,16382.0000,167.0000,-206.0000,0.0000,0.0612
19760828,101284.828125,20.450001,3.345242,0.2200,0.1900,9.5500,0.0000,-0.1250,0.0000,0.0000,0.0000,0.0000,16382.0000,167.0000,-206.0000,0.0000,0.1409
19791725,101293.742188,20.459999,2.602609,0.2200,0.2000,9.5600,-0.1250,0.0000,-0.1250,0.0000,0.0000,0.0000,16382.0000,167.0000,-206.0000,0.0000,0.0572
19823548,101292.656250,20.450001,2.693085,0.2400,0.1900,9.5700,-0.0625,-0.1250,-0.0625,0.0000,0.0000,0.0000,16382.0000,167.0000,-206.0000,0.0000,-0.0056
19853557,101290.898438,20.459999,2.839473,0.2400,0.1900,9.5800,0.0000,0.0000,0.0000,0.0000,0.0000,0.0000,16382.0000,167.0000,-206.0000,0.0000,0.0206
19883664,101293.742188,20.459999,2.602609,0.2400,0.1900,9.5800,-0.0625,0.0625,-0.0625,0.0000,0.0000,0.0000,16382.0000,167.0000,-206.0000,0.0000,0.0608
19921984,101289.828125,20.459999,2.928934,0.2400,0.1900,9.5900,0.0000,0.0625,0.0625,0.0000,0.0000,0.0000,16382.0000,167.0000,-206.0000,0.0000,0.0139
19952294,101294.820312,20.459999,2.513151,0.2300,0.1800,9.5600,0.0625,0.1250,0.0000,0.0000,0.0000,0.0000,16382.0000,167.0000,-206.0000,0.0000,-0.0568
19982415,101282.000000,20.459999,3.580598,0.2300,0.2000,9.5500,0.0000,0.1875,0.0000,0.0000,0.0000,0.0000,16382.0000,167.0000,-206.0000,0.0000,-0.0498
20014264,101285.906250,20.459999,3.255270,0.2300,0.1900,9.5700,0.0000,-0.2500,0.0000,0.0000,0.0000,0.0000,16382.0000,167.0000,-206.0000,0.0000,-0.0641
20044266,101294.820312,20.459999,2.513151,0.2500,0.2100,9.5900,-0.0625,0.1250,-0.0625,0.0000,0.0000,0.0000,16382.0000,167.0000,-206.0000,0.0000,-0.1003
20074315,101291.976562,20.469999,2.750013,0.2600,0.2100,9.5800,-0.0625,-0.1250,0.0000,0.0000,0.0000,0.0000,16382.0000,167.0000,-206.0000,0.0000,-0.1479
20104381,101285.906250,20.459999,3.255270,0.2100,0.2000,9.5500,-0.0625,-0.1250,0.0000,0.0000,0.0000,0.0000,16382.0000,167.0000,-206.0000,0.0000,-0.0921
20138247,101280.242188,20.469999,3.727000,0.2300,0.1800,9.5900,0.0625,-0.1250,0.0000,0.0000,0.0000,0.0000,16382.0000,167.0000,-206.0000,0.0000,-0.0028
20172290,101297.648438,20.459999,2.277311,0.2500,0.1800,9.5800,0.0000,0.0625,0.0000,0.0000,0.0000,0.0000,16382.0000,167.0000,-206.0000,0.0000,-0.0489
20203063,101294.820312,20.459999,2.513151,0.2300,0.2000,9.5800,0.0000,0.0000,0.0625,0.0000,0.0000,0.0000,16382.0000,167.0000,-206.0000,0.0000,-0.0395
20234845,101294.820312,20.459999,2.513151,0.2100,0.1800,9.5800,0.0000,0.3125,-0.0625,0.0000,0.0000,0.0000,16382.0000,167.0000,-206.0000,0.0000,-0.0691
20264888,101294.820312,20.459999,2.513151,0.2400,0.1900,9.6000,0.1250,0.1250,0.0000,0.0000,0.0000,0.0000,16382.0000,167.0000,-206.0000,0.0000,-0.0637
20294919,101284.148438,20.469999,3.401666,0.2600,0.1800,9.5800,0.0000,0.0000,0.0000,0.0000,0.0000,0.0000,16382.0000,167.0000,-206.0000,0.0000,-0.0940
20324958,101286.992188,20.459999,3.164789,0.2300,0.1900,9.5800,0.1250,0.0000,0.0000,0.0000,0.0000,0.0000,16382.0000,167.0000,-206.0000,0.0000,-0.1237
20363291,101286.992188,20.459999,3.164789,0.2300,0.2000,9.5600,0.0625,-0.0625,0.0625,0.0000,0.0000,0.0000,16382.0000,167.0000,-206.0000,0.0000,-0.0532
20393593,101295.890625,20.469999,2.423694,0.2500,0.2000,9.5600,0.0625,-0.0625,-0.0625,0.0000,0.0000,0.0000,16382.0000,167.0000,-206.0000,0.0000,-0.0620
20423738,101288.070312,20.469999,3.075326,0.2300,0.2000,9.5600,0.0625,0.2500,-0.0625,0.0000,0.0000,0.0000,16382.0000,167.0000,-206.0000,0.0000,-0.0776
20455548,101295.890625,20.469999,2.423694,0.2300,0.1900,9.5800,0.0625,-0.0625,-0.0625,0.0000,0.0000,0.0000,16382.0000,167.0000,-206.0000,0.0000,-0.2138
20485574,101288.070312,20.469999,3.075326,0.2200,0.1800,9.6000,0.1250,0.1250,-0.0625,0.0000,0.0000,0.0000,16382.0000,167.0000,-206.0000,0.0000,-0.1315
20515587,101285.906250,20.459999,3.255270,0.2400,0.2000,9.5600,0.0625,0.0000,0.1875,0.0000,0.0000,0.0000,16382.0000,167.0000,-206.0000,0.0000,-0.0762
20549044,101293.742188,20.459999,2.602609,0.2400,0.1800,9.5800,0.0625,0.0625,-0.0625,0.0000,0.0000,0.0000,16382.0000,167.0000,-206.0000,0.0000,-0.0636
20583291,101283.070312,20.459999,3.491640,0.2600,0.1700,9.5900,0.0625,0.0625,0.0000,0.0000,0.0000,0.0000,16382.0000,167.0000,-206.0000,0.0000,0.0200
20614170,101288.070312,20.469999,3.075326,0.2400,0.1800,9.6700,0.1875,0.0000,-0.0625,0.0000,0.0000,0.0000,16382.0000,167.0000,-206.0000,0.0000,-0.0054
20644419,101289.828125,20.459999,2.928934,0.2500,0.1900,9.6200,0.0000,0.0000,0.0000,0.0000,0.0000,0.0000,16382.0000,167.0000,-206.0000,0.0000,-0.0337
20676250,101291.976562,20.469999,2.750013,0.2200,0.1900,9.5400,0.1250,-0.0625,0.0000,0.0000,0.0000,0.0000,16382.0000,167.0000,-206.0000,0.0000,-0.0728
20706276,101278.078125,20.459999,3.907462,0.2200,0.1800,9.5800,0.1250,0.2500,0.0000,0.0000,0.0000,0.0000,16382.0000,167.0000,-206.0000,0.0000,0.0727
20736374,101290.898438,20.459999,2.839473,0.2300,0.1800,9.5800,-0.1250,0.0625,0.0000,0.0000,0.0000,0.0000,16382.0000,167.0000,-206.0000,0.0000,0.0349
20774593,101289.140625,20.469999,2.985864,0.2400,0.1800,9.6000,0.0000,0.0000,-0.0625,0.0000,0.0000,0.0000,16382.0000,167.0000,-206.0000,0.0000,0.0871
20804897,101291.976562,20.469999,2.750013,0.2100,0.1900,9.5600,-0.0625,-0.2500,0.0625,0.0000,0.0000,0.0000,16382.0000,167.0000,-206.0000,0.0000,0.0617
20834982,101286.992188,20.459999,3.164789,0.2200,0.1900,9.6000,0.1875,-0.1875,-0.0625,0.0000,0.0000,0.0000,16382.0000,167.0000,-206.0000,0.0000,0.0580
20865085,101293.062500,20.469999,2.659538,0.2600,0.1800,9.5800,-0.0625,0.0625,0.0000,0.0000,0.0000,0.0000,16382.0000,167.0000,-206.0000,0.0000,0.0792
20896903,101288.070312,20.469999,3.075326,0.2500,0.1900,9.5800,0.0000,0.1250,-0.1250,0.0000,0.0000,0.0000,16382.0000,167.0000,-206.0000,0.0000,0.0430
20926949,101295.890625,20.469999,2.423694,0.2200,0.1800,9.5700,-0.0625,0.0625,-0.0625,0.0000,0.0000,0.0000,16382.0000,167.0000,-206.0000,0.0000,-0.0002
20956996,101293.062500,20.469999,2.659538,0.2100,0.1800,9.5600,0.0000,0.1875,0.0000,0.0000,0.0000,0.0000,16382.0000,167.0000,-206.0000,0.0000,-0.0264
20990980,101295.890625,20.469999,2.423694,0.2500,0.1800,9.5500,0.0000,-0.0625,0.0000,0.0000,0.0000,0.0000,16382.0000,167.0000,-206.0000,0.0000,-0.0472
21024839,101295.890625,20.469999,2.423694,0.2200,0.1800,9.5700,0.1250,0.0625,0.0000,0.0000,0.0000,0.0000,16382.0000,167.0000,-206.0000,0.0000,-0.1920
21055563,101295.890625,20.469999,2.423694,0.2200,0.1900,9.5600,-0.1250,-0.0625,0.0625,0.0000,0.0000,0.0000,16382.0000,167.0000,-206.0000,0.0000,-0.2151
21095753,101294.132812,20.480000,2.570079,0.2500,0.1800,9.5400,0.0625,0.0000,0.0000,0.0000,0.0000,0.0000,16382.0000,167.0000,-206.0000,0.0000,-0.2430
21146100,101290.218750,20.480000,2.896403,0.2300,0.1900,9.5700,0.0000,-0.0625,0.0625,0.0000,0.0000,0.0000,16382.0000,167.0000,-206.0000,0.0000,-0.2342
21176152,101293.062500,20.469999,2.659538,0.2400,0.1900,9.5800,-0.0625,0.0000,-0.0625,0.0000,0.0000,0.0000,16382.0000,167.0000,-206.0000,0.0000,-0.2906
21206187,101293.062500,20.469999,2.659538,0.2500,0.1900,9.5800,-0.1250,-0.0625,-0.0625,0.0000,0.0000,0.0000,16382.0000,167.0000,-206.0000,0.0000,-0.2751
21245863,101296.968750,20.469999,2.334238,0.2400,0.1900,9.5600,0.0625,0.0000,0.0000,0.0000,0.0000,0.0000,16382.0000,167.0000,-206.0000,0.0000,-0.3308
21276185,101289.140625,20.469999,2.985864,0.2100,0.2000,9.5500,-0.1250,-0.1250,-0.1250,0.0000,0.0000,0.0000,16382.0000,167.0000,-206.0000,0.0000,-0.2656
21306428,101291.976562,20.469999,2.750013,0.2000,0.1900,9.5800,0.1250,-0.0625,0.0625,0.0000,0.0000,0.0000,16382.0000,167.0000,-206.0000,0.0000,-0.2429
21338252,101289.140625,20.469999,2.985864,0.2600,0.1900,9.5700,0.0000,0.0625,-0.0625,0.0000,0.0000,0.0000,16382.0000,167.0000,-206.0000,0.0000,-0.1878
21368279,101295.210938,20.480000,2.480621,0.2600,0.1800,9.5800,-0.1250,0.1250,0.0000,0.0000,0.0000,0.0000,16382.0000,167.0000,-206.0000,0.0000,-0.1648
21398312,101293.062500,20.469999,2.659538,0.2200,0.1800,9.5700,-0.0625,0.0625,0.0625,0.0000,0.0000,0.0000,16382.0000,167.0000,-206.0000,0.0000,-0.1424
21428352,101294.132812,20.480000,2.570079,0.2200,0.1900,9.5600,-0.0625,0.1250,0.0000,0.0000,0.0000,0.0000,16382.0000,167.0000,-206.0000,0.0000,-0.1399
21461460,101295.890625,20.469999,2.423694,0.2300,0.1800,9.5900,0.0625,-0.0625,-0.0625,0.0000,0.0000,0.0000,16382.0000,167.0000,-206.0000,0.0000,-0.1789
21496040,101290.218750,20.480000,2.896403,0.2400,0.1900,9.5800,0.0625,0.0000,-0.0625,0.0000,0.0000,0.0000,16382.0000,167.0000,-206.0000,0.0000,-0.1611
21526958,101289.140625,20.469999,2.985864,0.2500,0.2000,9.5800,0.0625,0.0000,0.0000,0.0000,0.0000,0.0000,16382.0000,167.0000,-206.0000,0.0000,-0.1296
21558783,101280.242188,20.469999,3.727000,0.2200,0.1900,9.5800,0.0000,0.2500,-0.0625,0.0000,0.0000,0.0000,16382.0000,167.0000,-206.0000,0.0000,-0.0146
21588832,101280.242188,20.469999,3.727000,0.2200,0.1800,9.5900,0.0625,0.0625,-0.1875,0.0000,0.0000,0.0000,16382.0000,167.0000,-206.0000,0.0000,0.0566
21618891,101292.367188,20.490000,2.717483,0.2200,0.1800,9.6400,0.0000,0.1875,-0.1250,0.0000,0.0000,0.0000,16382.0000,167.0000,-206.0000,0.0000,0.0641
21657218,101285.226562,20.469999,3.311693,0.2600,0.1900,9.6200,0.0000,-0.1875,0.0625,0.0000,0.0000,0.0000,16382.0000,167.0000,-206.0000,0.0000,0.0807
21687591,101290.218750,20.480000,2.896403,0.2200,0.1600,9.5400,-0.1250,-0.0625,-0.0625,0.0000,0.0000,0.0000,16382.0000,167.0000,-206.0000,0.0000,0.1194
21717703,101288.070312,20.469999,3.075326,0.2500,0.1900,9.5600,-0.0625,0.0000,-0.1250,0.0000,0.0000,0.0000,16382.0000,167.0000,-206.0000,0.0000,0.1646
21747767,101296.968750,20.469999,2.334238,0.2500,0.2000,9.5600,0.0000,0.0000,0.0000,0.0000,0.0000,0.0000,16382.0000,167.0000,-206.0000,0.0000,0.1688
21779587,101296.289062,20.490000,2.390656,0.2400,0.2000,9.5700,0.0000,0.1875,0.0000,0.0000,0.0000,0.0000,16382.0000,167.0000,-206.0000,0.0000,0.1633
21809684,101298.046875,20.480000,2.244274,0.2000,0.1700,9.5800,0.0625,0.0000,0.0000,0.0000,0.0000,0.0000,16382.0000,167.0000,-206.0000,0.0000,0.1034
21839717,101294.132812,20.480000,2.570079,0.1800,0.1500,9.5700,-0.1250,0.0000,0.0000,0.0000,0.0000,0.0000,16382.0000,167.0000,-206.0000,0.0000,0.0607
21873192,101292.367188,20.490000,2.717483,0.2500,0.2100,9.5400,-0.0625,0.0625,-0.0625,0.0000,0.0000,0.0000,16382.0000,167.0000,-206.0000,0.0000,-0.0443
21907410,101290.218750,20.480000,2.896403,0.2500,0.2000,9.5300,0.1250,0.0000,-0.0625,0.0000,0.0000,0.0000,16382.0000,167.0000,-206.0000,0.0000,-0.1173
21938190,101294.132812,20.480000,2.570079,0.2200,0.1900,9.5900,0.0000,0.0000,0.0625,0.0000,0.0000,0.0000,16382.0000,167.0000,-206.0000,0.0000,-0.1201
21968417,101280.242188,20.469999,3.727000,0.2200,0.2000,9.5900,-0.0625,-0.2500,0.1250,0.0000,0.0000,0.0000,16382.0000,167.0000,-206.0000,0.0000,-0.0898
22000295,101286.312500,20.480000,3.221720,0.2500,0.2000,9.5800,0.0625,-0.0625,0.0000,0.0000,0.0000,0.0000,16382.0000,167.0000,-206.0000,0.0000,-0.0733
22030349,101288.460938,20.490000,3.042795,0.2400,0.1800,9.5700,-0.1250,-0.0625,-0.0625,0.0000,0.0000,0.0000,16382.0000,167.0000,-206.0000,0.0000,-0.0759
22060389,101290.218750,20.480000,2.896403,0.2200,0.2000,9.5900,0.0000,-0.0625,0.0625,0.0000,0.0000,0.0000,16382.0000,167.0000,-206.0000,0.0000,-0.0291
22098717,101285.226562,20.469999,3.311693,0.2200,0.1700,9.5800,-0.0625,0.0000,-0.0625,0.0000,0.0000,0.0000,16382.0000,167.0000,-206.0000,0.0000,0.0583
22128967,101286.312500,20.480000,3.221720,0.2800,0.1900,9.5700,0.0625,0.0000,-0.0625,0.0000,0.0000,0.0000,16382.0000,167.0000,-206.0000,0.0000,0.1567
22159042,101289.140625,20.469999,2.985864,0.2600,0.1900,9.5600,-0.0625,0.2500,0.0000,0.0000,0.0000,0.0000,16382.0000,167.0000,-206.0000,0.0000,0.1906
22190874,101294.132812,20.480000,2.570079,0.2200,0.2000,9.5800,0.0625,0.0000,0.0625,0.0000,0.0000,0.0000,16382.0000,167.0000,-206.0000,0.0000,0.1943
22220891,101282.390625,20.480000,3.548065,0.2300,0.1800,9.5700,0.0000,0.0000,-0.0625,0.0000,0.0000,0.0000,16382.0000,167.0000,-206.0000,0.0000,0.2500
22250933,101294.132812,20.480000,2.570079,0.2500,0.2000,9.5800,-0.1250,0.0000,-0.0625,0.0000,0.0000,0.0000,16382.0000,167.0000,-206.0000,0.0000,0.2572
22280926,101290.218750,20.480000,2.896403,0.2600,0.2000,9.6000,0.0625,0.0625,0.0625,0.0000,0.0000,0.0000,16382.0000,167.0000,-206.0000,0.0000,0.1712
22312749,101290.218750,20.480000,2.896403,0.2100,0.1900,9.5800,-0.0625,0.2500,0.0000,0.0000,0.0000,0.0000,16382.0000,167.0000,-206.0000,0.0000,0.1589
22343320,101287.382812,20.480000,3.132257,0.2100,0.1700,9.5800,-0.0625,0.0625,0.1250,0.0000,0.0000,0.0000,16382.0000,167.0000,-206.0000,0.0000,0.1620
22377376,101292.367188,20.490000,2.717483,0.2400,0.1800,9.5600,-0.0625,0.0000,-0.0625,0.0000,0.0000,0.0000,16382.0000,167.0000,-206.0000,0.0000,0.1494
22409721,101290.218750,20.480000,2.896403,0.2500,0.1900,9.5800,0.0000,-0.0625,0.0000,0.0000,0.0000,0.0000,16382.0000,167.0000,-206.0000,0.0000,0.1050
22439916,101281.320312,20.469999,3.637023,0.2000,0.1800,9.6000,-0.0625,0.1250,0.0625,0.0000,0.0000,0.0000,16382.0000,167.0000,-206.0000,0.0000,0.1371
22470008,101282.390625,20.480000,3.548065,0.2200,0.1900,9.5900,-0.0625,0.1250,-0.1875,0.0000,0.0000,0.0000,16382.0000,167.0000,-206.0000,0.0000,0.1755
22500098,101288.460938,20.490000,3.042795,0.2400,0.1900,9.5700,0.0000,0.0625,0.0000,0.0000,0.0000,0.0000,16382.0000,167.0000,-206.0000,0.0000,0.2234
22539676,101300.203125,20.490000,2.064856,0.2500,0.1900,9.5800,0.0000,0.0000,0.0000,0.0000,0.0000,0.0000,16382.0000,167.0000,-206.0000,0.0000,0.0823
22570277,101300.203125,20.490000,2.064856,0.2000,0.1800,9.5500,0.0625,-0.1250,0.0625,0.0000,0.0000,0.0000,16382.0000,167.0000,-206.0000,0.0000,0.0437
22600430,101294.132812,20.480000,2.570079,0.2200,0.1900,9.6000,0.1250,-0.0625,0.0000,0.0000,0.0000,0.0000,16382.0000,167.0000,-206.0000,0.0000,0.0081
22632225,101286.312500,20.480000,3.221720,0.2500,0.1900,9.6000,0.0000,-0.1250,0.1250,0.0000,0.0000,0.0000,16382.0000,167.0000,-206.0000,0.0000,0.0247
22662315,101293.453125,20.490000,2.627007,0.2600,0.2000,9.5800,0.0625,0.1250,-0.0625,0.0000,0.0000,0.0000,16382.0000,167.0000,-206.0000,0.0000,-0.0299
22692354,101300.203125,20.490000,2.064856,0.2000,0.2000,9.5800,0.1250,-0.1250,0.0625,0.0000,0.0000,0.0000,16382.0000,167.0000,-206.0000,0.0000,-0.0851
22753691,101292.367188,20.490000,2.717483,0.2600,0.1800,9.5600,-0.0625,0.0625,0.0000,0.0000,0.0000,0.0000,16382.0000,167.0000,-206.0000,0.0000,-0.0994
22783751,101292.367188,20.490000,2.717483,0.2600,0.1800,9.6000,0.0000,0.0625,-0.0625,0.0000,0.0000,0.0000,16382.0000,167.0000,-206.0000,0.0000,-0.1925
22813776,101288.460938,20.490000,3.042795,0.2400,0.2000,9.5800,0.1250,0.0625,0.0000,0.0000,0.0000,0.0000,16382.0000,167.0000,-206.0000,0.0000,-0.2507
22843820,101296.289062,20.490000,2.390656,0.2800,0.1800,9.7000,0.0625,0.1250,0.0000,0.0000,0.0000,0.0000,16382.0000,167.0000,-206.0000,0.0000,-0.3170
22880382,101296.289062,20.490000,2.390656,0.1900,0.1700,9.5900,0.0625,-0.1250,0.0625,0.0000,0.0000,0.0000,16382.0000,167.0000,-206.0000,0.0000,-0.2725
22911195,101296.289062,20.490000,2.390656,0.1900,0.1500,9.5000,0.0000,-0.1875,-0.1250,0.0000,0.0000,0.0000,16382.0000,167.0000,-206.0000,0.0000,-0.2328
22941458,101292.367188,20.490000,2.717483,0.2500,0.2200,9.5800,0.1250,0.0000,-0.0625,0.0000,0.0000,0.0000,16382.0000,167.0000,-206.0000,0.0000,-0.2127
22981128,101290.218750,20.480000,2.896403,0.2900,0.2200,9.6000,0.0000,0.1250,-0.0625,0.0000,0.0000,0.0000,16382.0000,167.0000,-206.0000,0.0000,-0.2535
23011702,101289.539062,20.490000,2.952825,0.2000,0.1600,9.5600,0.0000,0.0000,-0.1250,0.0000,0.0000,0.0000,16382.0000,167.0000,-206.0000,0.0000,-0.2268
23041794,101292.367188,20.490000,2.717483,0.2200,0.1800,9.5600,0.0000,0.1875,0.0000,0.0000,0.0000,0.0000,16382.0000,167.0000,-206.0000,0.0000,-0.1645
23071889,101288.460938,20.490000,3.042795,0.2700,0.2200,9.5800,-0.1250,-0.0625,0.0000,0.0000,0.0000,0.0000,16382.0000,167.0000,-206.0000,0.0000,-0.1443
23103659,101286.312500,20.480000,3.221720,0.2600,0.1700,9.5700,0.0625,0.1250,-0.0625,0.0000,0.0000,0.0000,16382.0000,167.0000,-206.0000,0.0000,-0.1004
23133714,101283.468750,20.480000,3.458091,0.2000,0.1900,9.5700,0.0000,0.1250,-0.0625,0.0000,0.0000,0.0000,16382.0000,167.0000,-206.0000,0.0000,-0.0683
23163810,101298.437500,20.500000,2.211745,0.2000,0.2000,9.5500,-0.1250,0.1250,0.0000,0.0000,0.0000,0.0000,16382.0000,167.0000,-206.0000,0.0000,-0.0559
23197408,101290.218750,20.480000,2.896403,0.2500,0.2000,9.5900,0.0000,-0.1875,-0.0625,0.0000,0.0000,0.0000,16382.0000,167.0000,-206.0000,0.0000,0.0113
23231522,101292.367188,20.490000,2.717483,0.2600,0.1800,9.5700,0.1250,-0.1250,0.1250,0.0000,0.0000,0.0000,16382.0000,167.0000,-206.0000,0.0000,0.0440
23262281,101296.289062,20.490000,2.390656,0.2100,0.1900,9.5600,0.0000,0.1875,0.0625,0.0000,0.0000,0.0000,16382.0000,167.0000,-206.0000,0.0000,0.0297
23294160,101290.218750,20.480000,2.896403,0.2000,0.2000,9.5700,-0.1250,-0.1875,0.0625,0.0000,0.0000,0.0000,16382.0000,167.0000,-206.0000,0.0000,0.0297
23324195,101292.367188,20.490000,2.717483,0.2300,0.1800,9.5800,-0.0625,-0.0625,-0.0625,0.0000,0.0000,0.0000,16382.0000,167.0000,-206.0000,0.0000,0.0133
23354189,101286.312500,20.480000,3.221720,0.2900,0.1900,9.5700,0.1250,-0.2500,0.1250,0.0000,0.0000,0.0000,16382.0000,167.0000,-206.0000,0.0000,0.0460
23384261,101284.546875,20.490000,3.368625,0.2400,0.2000,9.5800,-0.1250,0.0625,0.0625,0.0000,0.0000,0.0000,16382.0000,167.0000,-206.0000,0.0000,0.0590
23422759,101289.140625,20.469999,2.985864,0.2100,0.2000,9.5800,0.0000,-0.0625,0.0000,0.0000,0.0000,0.0000,16382.0000,167.0000,-206.0000,0.0000,0.0206
23453016,101290.218750,20.480000,2.896403,0.2500,0.1900,9.5800,-0.0625,0.0000,0.0000,0.0000,0.0000,0.0000,16382.0000,167.0000,-206.0000,0.0000,-0.0421
23483155,101294.132812,20.480000,2.570079,0.2700,0.1900,9.5900,-0.1250,0.0625,0.0625,0.0000,0.0000,0.0000,16382.0000,167.0000,-206.0000,0.0000,-0.0033
23514970,101293.453125,20.490000,2.627007,0.2300,0.1800,9.5600,0.0000,0.1875,0.0625,0.0000,0.0000,0.0000,16382.0000,167.0000,-206.0000,0.0000,-0.0249
23544991,101289.539062,20.490000,2.952825,0.2300,0.1900,9.6100,0.0625,-0.0625,0.0000,0.0000,0.0000,0.0000,16382.0000,167.0000,-206.0000,0.0000,-0.0090
23575067,101293.453125,20.490000,2.627007,0.2400,0.1800,9.5500,0.0000,-0.1250,0.0625,0.0000,0.0000,0.0000,16382.0000,167.0000,-206.0000,0.0000,0.0366
23605137,101294.132812,20.480000,2.570079,0.2500,0.2000,9.6100,0.0000,-0.0625,0.1250,0.0000,0.0000,0.0000,16382.0000,167.0000,-206.0000,0.0000,0.0170
23638404,101296.289062,20.490000,2.390656,0.2100,0.1600,9.5900,-0.0625,-0.1875,0.0000,0.0000,0.0000,0.0000,16382.0000,167.0000,-206.0000,0.0000,-0.0026
23672767,101296.289062,20.490000,2.390656,0.2300,0.1900,9.5400,0.0000,-0.1875,0.0000,0.0000,0.0000,0.0000,16382.0000,167.0000,-206.0000,0.0000,-0.0756
23703634,101284.546875,20.490000,3.368625,0.2800,0.1900,9.5700,-0.1250,-0.1875,0.0000,0.0000,0.0000,0.0000,16382.0000,167.0000,-206.0000,0.0000,-0.0767
23735469,101299.132812,20.480000,2.153802,0.2200,0.2000,9.5800,-0.0625,-0.0625,0.0625,0.0000,0.0000,0.0000,16382.0000,167.0000,-206.0000,0.0000,-0.1386
23765546,101295.210938,20.480000,2.480621,0.1800,0.1800,9.5800,0.0625,0.1250,0.0000,0.0000,0.0000,0.0000,16382.0000,167.0000,-206.0000,0.0000,-0.1700
23795579,101292.367188,20.490000,2.717483,0.2300,0.1900,9.5600,-0.0625,0.0625,0.0000,0.0000,0.0000,0.0000,16382.0000,167.0000,-206.0000,0.0000,-0.1583
23834069,101298.046875,20.480000,2.244274,0.2700,0.1900,9.5900,-0.1250,-0.0625,-0.0625,0.0000,0.0000,0.0000,16382.0000,167.0000,-206.0000,0.0000,-0.1705
23864339,101291.296875,20.480000,2.806434,0.2200,0.1800,9.5700,0.0000,0.1875,0.1250,0.0000,0.0000,0.0000,16382.0000,167.0000,-206.0000,0.0000,-0.1898
23894419,101290.218750,20.480000,2.896403,0.2000,0.1700,9.5700,0.1250,0.0625,-0.0625,0.0000,0.0000,0.0000,16382.0000,167.0000,-206.0000,0.0000,-0.1629
23924517,101288.460938,20.490000,3.042795,0.2400,0.1900,9.5900,0.0000,0.1250,-0.1250,0.0000,0.0000,0.0000,16382.0000,167.0000,-206.0000,0.0000,-0.1185
23956365,101300.203125,20.490000,2.064856,0.2400,0.1900,9.5900,0.1250,0.0000,-0.1250,0.0000,0.0000,0.0000,16382.0000,167.0000,-206.0000,0.0000,-0.1298
23986422,101296.289062,20.490000,2.390656,0.2300,0.1700,9.5800,0.0000,0.0625,0.1250,0.0000,0.0000,0.0000,16382.0000,167.0000,-206.0000,0.0000,-0.1232
24016474,101292.367188,20.490000,2.717483,0.2100,0.2000,9.5800,0.0000,0.0000,0.0000,0.0000,0.0000,0.0000,16382.0000,167.0000,-206.0000,0.0000,-0.1848
24050699,101289.539062,20.490000,2.952825,0.2600,0.2000,9.5600,0.0000,-0.0625,-0.0625,0.0000,0.0000,0.0000,16382.0000,167.0000,-206.0000,0.0000,-0.0912
24084378,101292.367188,20.490000,2.717483,0.2500,0.1900,9.5600,-0.0625,0.1250,0.0000,0.0000,0.0000,0.0000,16382.0000,167.0000,-206.0000,0.0000,-0.0509
24114951,101292.367188,20.490000,2.717483,0.2100,0.1700,9.5700,-0.0625,0.0625,-0.0625,0.0000,0.0000,0.0000,16382.0000,167.0000,-206.0000,0.0000,-0.0444
24145180,101292.367188,20.490000,2.717483,0.2200,0.1800,9.5700,-0.1250,-0.1875,-0.0625,0.0000,0.0000,0.0000,16382.0000,167.0000,-206.0000,0.0000,-0.0101
24177027,101290.617188,20.500000,2.862855,0.2500,0.2000,9.5700,0.0000,0.0625,-0.1875,0.0000,0.0000,0.0000,16382.0000,167.0000,-206.0000,0.0000,-0.0204
24207066,101298.437500,20.500000,2.211745,0.2500,0.2100,9.5500,0.0000,0.0625,-0.0625,0.0000,0.0000,0.0000,16382.0000,167.0000,-206.0000,0.0000,-0.0817
24237078,101285.617188,20.490000,3.279160,0.2100,0.2000,9.5500,0.1250,-0.0625,0.0000,0.0000,0.0000,0.0000,16382.0000,167.0000,-206.0000,0.0000,-0.0592
24275383,101284.546875,20.490000,3.368625,0.2200,0.1900,9.5300,-0.0625,0.1875,-0.1250,0.0000,0.0000,0.0000,16382.0000,167.0000,-206.0000,0.0000,0.0563
24305644,101294.531250,20.500000,2.537041,0.2500,0.1700,9.5800,0.1250,-0.1250,-0.1250,0.0000,0.0000,0.0000,16382.0000,167.0000,-206.0000,0.0000,0.0615
24365827,101294.531250,20.500000,2.537041,0.2400,0.2200,9.5600,0.0000,-0.1250,0.0625,0.0000,0.0000,0.0000,16382.0000,167.0000,-206.0000,0.0000,0.0471
24398254,101289.539062,20.490000,2.952825,0.2100,0.1900,9.5700,0.0625,-0.0625,0.0625,0.0000,0.0000,0.0000,16382.0000,167.0000,-206.0000,0.0000,0.0424
24428280,101298.437500,20.500000,2.211745,0.2300,0.1900,9.5800,-0.0625,0.0625,-0.1250,0.0000,0.0000,0.0000,16382.0000,167.0000,-206.0000,0.0000,0.0084
24458278,101292.367188,20.490000,2.717483,0.2800,0.1800,9.5900,0.0000,-0.0625,0.0000,0.0000,0.0000,0.0000,16382.0000,167.0000,-206.0000,0.0000,0.0019
24488330,101293.453125,20.490000,2.627007,0.2600,0.2100,9.5600,-0.0625,0.0000,0.0625,0.0000,0.0000,0.0000,16382.0000,167.0000,-206.0000,0.0000,-0.0119
24520532,101292.367188,20.490000,2.717483,0.2000,0.1900,9.5800,0.0000,-0.0625,0.0625,0.0000,0.0000,0.0000,16382.0000,167.0000,-206.0000,0.0000,-0.0330
24555215,101282.789062,20.500000,3.515023,0.2200,0.1900,9.5600,0.0625,0.0625,0.0000,0.0000,0.0000,0.0000,16382.0000,167.0000,-206.0000,0.0000,0.0814
24586307,101292.367188,20.490000,2.717483,0.2400,0.1800,9.5700,-0.1250,0.1250,-0.1250,0.0000,0.0000,0.0000,16382.0000,167.0000,-206.0000,0.0000,0.0288
24618108,101296.679688,20.500000,2.358126,0.2300,0.1700,9.5500,0.0625,0.1250,0.0000,0.0000,0.0000,0.0000,16382.0000,167.0000,-206.0000,0.0000,-0.0603
24648180,101297.367188,20.490000,2.300692,0.2000,0.1900,9.5600,-0.0625,0.0625,0.0000,0.0000,0.0000,0.0000,16382.0000,167.0000,-206.0000,0.0000,-0.0756
24678231,101301.281250,20.490000,1.974895,0.2200,0.1900,9.5600,0.0625,-0.1250,0.0000,0.0000,0.0000,0.0000,16382.0000,167.0000,-206.0000,0.0000,-0.1105
24708281,101292.367188,20.490000,2.717483,0.2700,0.1900,9.6000,0.0000,0.0625,0.0625,0.0000,0.0000,0.0000,16382.0000,167.0000,-206.0000,0.0000,-0.1240
24746739,101290.218750,20.480000,2.896403,0.2300,0.1900,9.5800,-0.0625,0.0000,0.0625,0.0000,0.0000,0.0000,16382.0000,167.0000,-206.0000,0.0000,-0.0443
24777144,101292.367188,20.490000,2.717483,0.2100,0.1700,9.5800,0.0000,0.0000,0.0625,0.0000,0.0000,0.0000,16382.0000,167.0000,-206.0000,0.0000,-0.0544
24807259,101293.453125,20.490000,2.627007,0.2200,0.1700,9.5900,0.0000,-0.3125,0.0000,0.0000,0.0000,0.0000,16382.0000,167.0000,-206.0000,0.0000,-0.0490
24839068,101285.617188,20.490000,3.279160,0.2700,0.1900,9.5800,0.0000,0.0625,0.0000,0.0000,0.0000,0.0000,16382.0000,167.0000,-206.0000,0.0000,-0.0040
24869101,101290.218750,20.480000,2.896403,0.2200,0.1900,9.5800,0.0000,0.0625,0.1250,0.0000,0.0000,0.0000,16382.0000,167.0000,-206.0000,0.0000,-0.0760
24899143,101288.460938,20.490000,3.042795,0.2100,0.1900,9.5800,0.0000,-0.0625,0.0625,0.0000,0.0000,0.0000,16382.0000,167.0000,-206.0000,0.0000,-0.0464
24932445,101287.382812,20.480000,3.132257,0.2200,0.1900,9.5800,0.0000,0.0625,0.1250,0.0000,0.0000,0.0000,16382.0000,167.0000,-206.0000,0.0000,0.0227
24966875,101292.367188,20.490000,2.717483,0.2400,0.1900,9.5800,0.1250,-0.1875,0.0000,0.0000,0.0000,0.0000,16382.0000,167.0000,-206.0000,0.0000,0.0745
24997591,101280.632812,20.490000,3.694466,0.2500,0.1900,9.5500,0.0000,0.0000,0.0625,0.0000,0.0000,0.0000,16382.0000,167.0000,-206.0000,0.0000,0.2399
25027910,101294.531250,20.500000,2.537041,0.2300,0.1900,9.5800,0.0000,-0.1250,-0.0625,0.0000,0.0000,0.0000,16382.0000,167.0000,-206.0000,0.0000,0.2308
25059769,101293.453125,20.490000,2.627007,0.2400,0.1900,9.5800,0.0000,-0.1250,-0.0625,0.0000,0.0000,0.0000,16382.0000,167.0000,-206.0000,0.0000,0.2093
25089830,101278.476562,20.480000,3.873911,0.2500,0.1900,9.5900,-0.0625,-0.0625,0.0000,0.0000,0.0000,0.0000,16382.0000,167.0000,-206.0000,0.0000,0.2989
25119888,101282.390625,20.480000,3.548065,0.2500,0.1900,9.5900,0.0000,-0.1875,0.0000,0.0000,0.0000,0.0000,16382.0000,167.0000,-206.0000,0.0000,0.3725
25158047,101294.531250,20.500000,2.537041,0.2300,0.1900,9.5600,0.0000,-0.1250,0.0000,0.0000,0.0000,0.0000,16382.0000,167.0000,-206.0000,0.0000,0.3066
25188409,101288.460938,20.490000,3.042795,0.2300,0.2000,9.5700,0.0625,0.0000,0.0000,0.0000,0.0000,0.0000,16382.0000,167.0000,-206.0000,0.0000,0.3130
25218526,101282.390625,20.480000,3.548065,0.2700,0.2100,9.5800,0.0000,0.0625,0.0000,0.0000,0.0000,0.0000,16382.0000,167.0000,-206.0000,0.0000,0.3439
25248622,101290.218750,20.480000,2.896403,0.2300,0.1900,9.5700,0.0625,0.0000,0.0000,0.0000,0.0000,0.0000,16382.0000,167.0000,-206.0000,0.0000,0.3102
25280469,101281.320312,20.469999,3.637023,0.2100,0.1900,9.5700,-0.0625,0.1250,0.0000,0.0000,0.0000,0.0000,16382.0000,167.0000,-206.0000,0.0000,0.3773
25310506,101292.367188,20.490000,2.717483,0.2200,0.1800,9.5900,0.0000,0.0000,-0.0625,0.0000,0.0000,0.0000,16382.0000,167.0000,-206.0000,0.0000,0.2926
25340546,101292.367188,20.490000,2.717483,0.2300,0.1900,9.5800,-0.0625,0.1875,-0.1250,0.0000,0.0000,0.0000,16382.0000,167.0000,-206.0000,0.0000,0.2994
25374376,101294.531250,20.500000,2.537041,0.2400,0.2000,9.5700,-0.0625,0.3125,-0.0625,0.0000,0.0000,0.0000,16382.0000,167.0000,-206.0000,0.0000,0.2892
25408381,101284.546875,20.490000,3.368625,0.2400,0.1800,9.5500,0.1250,0.1250,0.0000,0.0000,0.0000,0.0000,16382.0000,167.0000,-206.0000,0.0000,0.2257
25439191,101297.367188,20.490000,2.300692,0.2400,0.1900,9.5900,0.0625,-0.0625,-0.0625,0.0000,0.0000,0.0000,16382.0000,167.0000,-206.0000,0.0000,0.0998
25470969,101284.546875,20.490000,3.368625,0.2300,0.1900,9.5600,0.0625,-0.0625,0.0000,0.0000,0.0000,0.0000,16382.0000,167.0000,-206.0000,0.0000,0.1717
25500981,101280.632812,20.490000,3.694466,0.2200,0.1800,9.5500,-0.1250,0.1875,-0.1250,0.0000,0.0000,0.0000,16382.0000,167.0000,-206.0000,0.0000,0.2209
25531022,101293.453125,20.490000,2.627007,0.2500,0.2000,9.5800,0.0000,0.0625,-0.0625,0.0000,0.0000,0.0000,16382.0000,167.0000,-206.0000,0.0000,0.1371
25561022,101300.203125,20.490000,2.064856,0.2200,0.1800,9.6000,-0.0625,0.0000,-0.0625,0.0000,0.0000,0.0000,16382.0000,167.0000,-206.0000,0.0000,0.0540
25599552,101286.703125,20.500000,3.189188,0.2200,0.1900,9.5600,-0.0625,-0.0625,0.0000,0.0000,0.0000,0.0000,16382.0000,167.0000,-206.0000,0.0000,-0.0068
25629839,101296.289062,20.490000,2.390656,0.2500,0.2000,9.5600,0.0625,0.0000,-0.1250,0.0000,0.0000,0.0000,16382.0000,167.0000,-206.0000,0.0000,-0.0329
25659924,101284.546875,20.490000,3.368625,0.2600,0.2000,9.5900,-0.1250,-0.1875,0.0625,0.0000,0.0000,0.0000,16382.0000,167.0000,-206.0000,0.0000,0.0239
25691744,101285.617188,20.490000,3.279160,0.2200,0.1700,9.5800,0.0625,0.0625,0.1250,0.0000,0.0000,0.0000,16382.0000,167.0000,-206.0000,0.0000,0.0869
25721805,101294.531250,20.500000,2.537041,0.2200,0.1800,9.5700,0.0000,0.0625,0.0625,0.0000,0.0000,0.0000,16382.0000,167.0000,-206.0000,0.0000,0.0073
25751850,101284.546875,20.490000,3.368625,0.2100,0.1700,9.5600,-0.1875,-0.0625,0.0625,0.0000,0.0000,0.0000,16382.0000,167.0000,-206.0000,0.0000,0.1011
25781855,101288.460938,20.490000,3.042795,0.2400,0.1900,9.5700,0.0000,-0.0625,-0.0625,0.0000,0.0000,0.0000,16382.0000,167.0000,-206.0000,0.0000,0.0649
25815153,101286.703125,20.500000,3.189188,0.2300,0.1600,9.5900,-0.1250,-0.1250,0.0625,0.0000,0.0000,0.0000,16382.0000,167.0000,-206.0000,0.0000,-0.0052
25849577,101298.437500,20.500000,2.211745,0.2200,0.1900,9.5800,-0.0625,0.0625,-0.1250,0.0000,0.0000,0.0000,16382.0000,167.0000,-206.0000,0.0000,-0.0254
25880530,101284.546875,20.490000,3.368625,0.2400,0.2000,9.6100,-0.0625,-0.1250,0.0000,0.0000,0.0000,0.0000,16382.0000,167.0000,-206.0000,0.0000,0.1050
25912358,101282.789062,20.500000,3.515023,0.2300,0.1900,9.5900,-0.0625,0.0000,0.0000,0.0000,0.0000,0.0000,16382.0000,167.0000,-206.0000,0.0000,0.1180
25942407,101288.460938,20.490000,3.042795,0.2300,0.1900,9.6100,-0.1875,0.1250,0.0000,0.0000,0.0000,0.0000,16382.0000,167.0000,-206.0000,0.0000,0.1731
25981121,101290.617188,20.500000,2.862855,0.2400,0.1800,9.5800,-0.0625,-0.0625,0.1250,0.0000,0.0000,0.0000,16382.0000,167.0000,-206.0000,0.0000,0.1244
26040986,101295.609375,20.500000,2.447075,0.2400,0.1700,9.5600,0.0000,0.1250,-0.0625,0.0000,0.0000,0.0000,16382.0000,167.0000,-206.0000,0.0000,0.0365
26071229,101286.703125,20.500000,3.189188,0.2400,0.1800,9.5800,-0.0625,0.0000,0.0000,0.0000,0.0000,0.0000,16382.0000,167.0000,-206.0000,0.0000,0.0922
26101342,101296.679688,20.500000,2.358126,0.2500,0.1700,9.5700,0.1250,0.0625,0.1250,0.0000,0.0000,0.0000,16382.0000,167.0000,-206.0000,0.0000,-0.0034
26131381,101294.531250,20.500000,2.537041,0.2500,0.1900,9.5700,0.0000,0.0000,-0.0625,0.0000,0.0000,0.0000,16382.0000,167.0000,-206.0000,0.0000,-0.0504
26163251,101279.953125,20.500000,3.750891,0.2400,0.1900,9.5700,0.0625,0.0625,-0.1250,0.0000,0.0000,0.0000,16382.0000,167.0000,-206.0000,0.0000,0.0010
26193294,101287.781250,20.500000,3.099217,0.2300,0.2000,9.5600,-0.0625,0.0625,0.0000,0.0000,0.0000,0.0000,16382.0000,167.0000,-206.0000,0.0000,0.0822
26223343,101289.539062,20.490000,2.952825,0.2400,0.2100,9.5800,0.0000,0.0625,0.1250,0.0000,0.0000,0.0000,16382.0000,167.0000,-206.0000,0.0000,0.0287
26256786,101293.453125,20.490000,2.627007,0.2200,0.1700,9.5600,0.0000,0.0000,0.0000,0.0000,0.0000,0.0000,16382.0000,167.0000,-206.0000,0.0000,-0.0666
26291200,101303.429688,20.500000,1.795990,0.2400,0.1800,9.5800,0.0000,0.0625,0.0000,0.0000,0.0000,0.0000,16382.0000,167.0000,-206.0000,0.0000,-0.1877
26321938,101286.703125,20.500000,3.189188,0.2200,0.2000,9.5700,0.0000,-0.0625,0.0625,0.0000,0.0000,0.0000,16382.0000,167.0000,-206.0000,0.0000,-0.1645
26352083,101302.359375,20.500000,1.884934,0.2400,0.1900,9.5700,0.1250,0.1250,-0.1250,0.0000,0.0000,0.0000,16382.0000,167.0000,-206.0000,0.0000,-0.2005
26383920,101294.531250,20.500000,2.537041,0.2400,0.2000,9.5700,0.0625,0.0625,-0.1250,0.0000,0.0000,0.0000,16382.0000,167.0000,-206.0000,0.0000,-0.2621
26413943,101294.531250,20.500000,2.537041,0.2500,0.1900,9.5700,0.0625,0.0625,0.0000,0.0000,0.0000,0.0000,16382.0000,167.0000,-206.0000,0.0000,-0.2424
26443956,101296.679688,20.500000,2.358126,0.2600,0.1900,9.5800,0.0625,-0.1250,0.0625,0.0000,0.0000,0.0000,16382.0000,167.0000,-206.0000,0.0000,-0.2419
26482341,101286.703125,20.500000,3.189188,0.2300,0.1900,9.5800,0.0625,0.0000,-0.0625,0.0000,0.0000,0.0000,16382.0000,167.0000,-206.0000,0.0000,-0.3039
26512587,101286.703125,20.500000,3.189188,0.2500,0.2000,9.5700,0.1250,0.0000,0.0625,0.0000,0.0000,0.0000,16382.0000,167.0000,-206.0000,0.0000,-0.2979
26542731,101296.679688,20.500000,2.358126,0.2300,0.1900,9.5600,0.0000,0.0000,0.0000,0.0000,0.0000,0.0000,16382.0000,167.0000,-206.0000,0.0000,-0.3419
26574549,101284.937500,20.500000,3.336092,0.2400,0.1700,9.5800,0.0000,0.0000,0.0000,0.0000,0.0000,0.0000,16382.0000,167.0000,-206.0000,0.0000,-0.2833
26604590,101294.531250,20.500000,2.537041,0.2200,0.1800,9.5700,-0.1250,0.0000,0.0625,0.0000,0.0000,0.0000,16382.0000,167.0000,-206.0000,0.0000,-0.1861
26634625,101293.453125,20.490000,2.627007,0.2200,0.1900,9.5800,-0.0625,0.0000,0.0000,0.0000,0.0000,0.0000,16382.0000,167.0000,-206.0000,0.0000,-0.2441
26664649,101281.031250,20.500000,3.661424,0.2400,0.1900,9.5800,-0.0625,0.0625,-0.1250,0.0000,0.0000,0.0000,16382.0000,167.0000,-206.0000,0.0000,-0.0871
26697965,101295.609375,20.500000,2.447075,0.2200,0.1700,9.5800,0.0000,-0.0625,0.0000,0.0000,0.0000,0.0000,16382.0000,167.0000,-206.0000,0.0000,-0.0676
26732040,101288.859375,20.500000,3.009246,0.2500,0.1800,9.5800,-0.0625,-0.0625,0.0000,0.0000,0.0000,0.0000,16382.0000,167.0000,-206.0000,0.0000,-0.0096
26763145,101295.609375,20.500000,2.447075,0.2400,0.1800,9.5600,0.0000,-0.0625,-0.0625,0.0000,0.0000,0.0000,16382.0000,167.0000,-206.0000,0.0000,0.0011
26794976,101286.703125,20.500000,3.189188,0.2300,0.2000,9.5800,0.0625,0.1875,0.0000,0.0000,0.0000,0.0000,16382.0000,167.0000,-206.0000,0.0000,-0.0018
26825015,101287.781250,20.500000,3.099217,0.2200,0.1900,9.5700,0.0000,-0.0625,0.0000,0.0000,0.0000,0.0000,16382.0000,167.0000,-206.0000,0.0000,-0.0018
26855016,101290.617188,20.500000,2.862855,0.2600,0.1900,9.5700,0.0000,0.0625,0.0000,0.0000,0.0000,0.0000,16382.0000,167.0000,-206.0000,0.0000,0.0493
26885091,101292.773438,20.500000,2.683427,0.2200,0.2000,9.5900,0.0625,0.1875,-0.1250,0.0000,0.0000,0.0000,16382.0000,167.0000,-206.0000,0.0000,0.0031
26923647,101296.679688,20.500000,2.358126,0.2300,0.1900,9.5500,-0.0625,0.0000,0.0625,0.0000,0.0000,0.0000,16382.0000,167.0000,-206.0000,0.0000,-0.0076
26954044,101288.859375,20.500000,3.009246,0.2400,0.1900,9.6000,0.0000,-0.0625,-0.0625,0.0000,0.0000,0.0000,16382.0000,167.0000,-206.0000,0.0000,0.0248
26984168,101295.609375,20.500000,2.447075,0.2300,0.2000,9.5800,0.0000,-0.0625,0.1250,0.0000,0.0000,0.0000,16382.0000,167.0000,-206.0000,0.0000,-0.0948
27016001,101288.859375,20.500000,3.009246,0.2200,0.1700,9.5800,-0.0625,0.0625,0.0000,0.0000,0.0000,0.0000,16382.0000,167.0000,-206.0000,0.0000,-0.0314
27046030,101291.687500,20.500000,2.773903,0.2300,0.1800,9.5800,-0.0625,0.0000,-0.1250,0.0000,0.0000,0.0000,16382.0000,167.0000,-206.0000,0.0000,-0.0644
27076073,101278.867188,20.500000,3.841377,0.2400,0.2000,9.6000,0.0625,0.0625,0.0000,0.0000,0.0000,0.0000,16382.0000,167.0000,-206.0000,0.0000,0.0655
27109915,101286.703125,20.500000,3.189188,0.2500,0.1800,9.5800,-0.0625,0.0000,-0.0625,0.0000,0.0000,0.0000,16382.0000,167.0000,-206.0000,0.0000,0.0756
27143918,101297.757812,20.510000,2.268162,0.2500,0.2000,9.6000,0.0625,0.2500,0.0000,0.0000,0.0000,0.0000,16382.0000,167.0000,-206.0000,0.0000,-0.0003
27174652,101292.773438,20.500000,2.683427,0.2200,0.1900,9.6000,0.0000,0.0000,-0.0625,0.0000,0.0000,0.0000,16382.0000,167.0000,-206.0000,0.0000,-0.0306
27204886,101296.679688,20.500000,2.358126,0.2300,0.1800,9.5400,0.0625,-0.1875,0.0000,0.0000,0.0000,0.0000,16382.0000,167.0000,-206.0000,0.0000,-0.0465
27236682,101287.781250,20.500000,3.099217,0.2500,0.1900,9.6000,0.0000,0.1250,0.0000,0.0000,0.0000,0.0000,16382.0000,167.0000,-206.0000,0.0000,0.0134
27266765,101289.929688,20.510000,2.920293,0.2300,0.1900,9.5700,-0.1250,-0.0625,-0.0625,0.0000,0.0000,0.0000,16382.0000,167.0000,-206.0000,0.0000,0.0135
27296809,101287.781250,20.500000,3.099217,0.2300,0.1900,9.5700,-0.0625,0.0625,-0.0625,0.0000,0.0000,0.0000,16382.0000,167.0000,-206.0000,0.0000,0.0823
27335122,101291.007812,20.510000,2.830324,0.2000,0.1700,9.5800,-0.1250,-0.2500,0.0625,0.0000,0.0000,0.0000,16382.0000,167.0000,-206.0000,0.0000,0.0586
27365431,101292.773438,20.500000,2.683427,0.2600,0.2100,9.5800,0.0625,0.0000,-0.0625,0.0000,0.0000,0.0000,16382.0000,167.0000,-206.0000,0.0000,0.0632
27395519,101289.929688,20.510000,2.920293,0.2200,0.1900,9.5700,-0.0625,-0.0625,0.0625,0.0000,0.0000,0.0000,16382.0000,167.0000,-206.0000,0.0000,-0.0264
27425602,101297.757812,20.510000,2.268162,0.2100,0.1900,9.5500,0.0000,-0.0625,-0.1250,0.0000,0.0000,0.0000,16382.0000,167.0000,-206.0000,0.0000,-0.1001
27457443,101287.781250,20.500000,3.099217,0.2400,0.1900,9.5700,0.0625,0.1875,-0.0625,0.0000,0.0000,0.0000,16382.0000,167.0000,-206.0000,0.0000,-0.0348
27487477,101289.929688,20.510000,2.920293,0.2400,0.1800,9.5700,0.0000,-0.0625,-0.0625,0.0000,0.0000,0.0000,16382.0000,167.0000,-206.0000,0.0000,-0.0021
27517523,101304.507812,20.500000,1.706031,0.2300,0.1900,9.5800,0.0625,0.0000,0.0000,0.0000,0.0000,0.0000,16382.0000,167.0000,-206.0000,0.0000,-0.0311
27551171,101281.031250,20.500000,3.661424,0.2100,0.1900,9.6000,-0.0625,0.0000,0.0000,0.0000,0.0000,0.0000,16382.0000,167.0000,-206.0000,0.0000,0.0127
27589839,101292.773438,20.500000,2.683427,0.2700,0.1800,9.5600,0.1250,-0.1250,0.0000,0.0000,0.0000,0.0000,16382.0000,167.0000,-206.0000,0.0000,-0.0074
27645507,101295.609375,20.500000,2.447075,0.2200,0.1800,9.5500,0.0625,0.1875,0.0000,0.0000,0.0000,0.0000,16382.0000,167.0000,-206.0000,0.0000,-0.0726
27677386,101292.773438,20.500000,2.683427,0.2300,0.1800,9.5700,-0.1250,0.1875,-0.1250,0.0000,0.0000,0.0000,16382.0000,167.0000,-206.0000,0.0000,-0.0772
27707438,101291.007812,20.510000,2.830324,0.2700,0.1900,9.5700,-0.0625,0.1875,-0.0625,0.0000,0.0000,0.0000,16382.0000,167.0000,-206.0000,0.0000,-0.0719
27737508,101281.031250,20.500000,3.661424,0.2600,0.1800,9.5800,0.0000,0.1250,-0.1875,0.0000,0.0000,0.0000,16382.0000,167.0000,-206.0000,0.0000,-0.0203
27767533,101296.679688,20.500000,2.358126,0.2400,0.1900,9.5700,0.0625,0.1875,0.1875,0.0000,0.0000,0.0000,16382.0000,167.0000,-206.0000,0.0000,0.0165
27806479,101289.929688,20.510000,2.920293,0.2000,0.2000,9.5600,0.0625,0.0625,0.0625,0.0000,0.0000,0.0000,16382.0000,167.0000,-206.0000,0.0000,0.0022
27836879,101289.929688,20.510000,2.920293,0.2700,0.2100,9.5900,0.0000,0.0625,0.0000,0.0000,0.0000,0.0000,16382.0000,167.0000,-206.0000,0.0000,0.0029
27867109,101296.679688,20.500000,2.358126,0.2500,0.1800,9.5700,0.0000,0.0000,-0.0625,0.0000,0.0000,0.0000,16382.0000,167.0000,-206.0000,0.0000,0.0735
27898903,101289.929688,20.510000,2.920293,0.2100,0.1900,9.5700,-0.1250,-0.1250,0.0625,0.0000,0.0000,0.0000,16382.0000,167.0000,-206.0000,0.0000,-0.0231
27928987,101297.757812,20.510000,2.268162,0.2200,0.1900,9.5500,0.0625,-0.0625,-0.1250,0.0000,0.0000,0.0000,16382.0000,167.0000,-206.0000,0.0000,-0.0462
27959007,101289.929688,20.510000,2.920293,0.2800,0.1900,9.5700,0.1250,-0.0625,0.0000,0.0000,0.0000,0.0000,16382.0000,167.0000,-206.0000,0.0000,-0.0196
27989008,101297.757812,20.510000,2.268162,0.2700,0.1900,9.5900,0.0000,-0.1875,0.1250,0.0000,0.0000,0.0000,16382.0000,167.0000,-206.0000,0.0000,-0.0558
28022499,101289.929688,20.510000,2.920293,0.1900,0.1900,9.5700,0.0625,0.0000,0.1250,0.0000,0.0000,0.0000,16382.0000,167.0000,-206.0000,0.0000,-0.0544
28056704,101291.007812,20.510000,2.830324,0.2200,0.1900,9.5800,-0.0625,-0.1875,0.0000,0.0000,0.0000,0.0000,16382.0000,167.0000,-206.0000,0.0000,-0.1470
28087657,101281.031250,20.500000,3.661424,0.2700,0.2000,9.5700,-0.1250,0.0625,-0.0625,0.0000,0.0000,0.0000,16382.0000,167.0000,-206.0000,0.0000,-0.0261
28119513,101298.843750,20.510000,2.177691,0.2400,0.1900,9.5700,-0.0625,0.1250,-0.0625,0.0000,0.0000,0.0000,16382.0000,167.0000,-206.0000,0.0000,-0.0801
28149546,101298.843750,20.510000,2.177691,0.2000,0.1800,9.5600,0.2500,-0.1875,0.0625,0.0000,0.0000,0.0000,16382.0000,167.0000,-206.0000,0.0000,-0.1508
28179614,101298.843750,20.510000,2.177691,0.2300,0.1800,9.5700,0.0625,-0.1250,0.0000,0.0000,0.0000,0.0000,16382.0000,167.0000,-206.0000,0.0000,-0.1457
28217955,101294.921875,20.510000,2.504511,0.2600,0.1900,9.5600,0.0625,0.0000,0.0000,0.0000,0.0000,0.0000,16382.0000,167.0000,-206.0000,0.0000,-0.1866
28248270,101293.156250,20.520000,2.651405,0.2300,0.1900,9.5800,0.0625,0.0000,0.0625,0.0000,0.0000,0.0000,16382.0000,167.0000,-206.0000,0.0000,-0.1488
28278370,101292.093750,20.520000,2.739848,0.2000,0.1800,9.5600,0.0625,0.0000,0.1250,0.0000,0.0000,0.0000,16382.0000,167.0000,-206.0000,0.0000,-0.1484
28308494,101288.171875,20.520000,3.066685,0.2200,0.1900,9.5800,0.0000,0.1875,0.1250,0.0000,0.0000,0.0000,16382.0000,167.0000,-206.0000,0.0000,-0.0809
28340357,101291.007812,20.510000,2.830324,0.2600,0.2000,9.5700,-0.1250,0.1875,0.0625,0.0000,0.0000,0.0000,16382.0000,167.0000,-206.0000,0.0000,-0.0863
28370410,101287.101562,20.510000,3.155640,0.2500,0.1900,9.5800,0.1250,-0.0625,0.0000,0.0000,0.0000,0.0000,16382.0000,167.0000,-206.0000,0.0000,-0.0680
28400446,101289.250000,20.520000,2.976715,0.2100,0.1800,9.5700,-0.1875,0.1250,-0.0625,0.0000,0.0000,0.0000,16382.0000,167.0000,-206.0000,0.0000,-0.1322
28432316,101289.250000,20.520000,2.976715,0.2500,0.2000,9.5600,0.0000,0.2500,-0.1250,0.0000,0.0000,0.0000,16382.0000,167.0000,-206.0000,0.0000,-0.0498
28464367,101294.921875,20.510000,2.504511,0.2600,0.1800,9.5900,-0.0625,0.1875,-0.0625,0.0000,0.0000,0.0000,16382.0000,167.0000,-206.0000,0.0000,-0.0100
28498411,101291.007812,20.510000,2.830324,0.2700,0.1900,9.5600,-0.0625,-0.1250,0.0000,0.0000,0.0000,0.0000,16382.0000,167.0000,-206.0000,0.0000,0.0523
28529198,101297.078125,20.520000,2.325089,0.2000,0.2000,9.6000,0.0000,0.0625,-0.0625,0.0000,0.0000,0.0000,16382.0000,167.0000,-206.0000,0.0000,0.0350
28561047,101287.101562,20.510000,3.155640,0.2400,0.2000,9.5800,0.0625,-0.1250,0.0000,0.0000,0.0000,0.0000,16382.0000,167.0000,-206.0000,0.0000,0.0825
28591076,101285.343750,20.520000,3.302035,0.2600,0.1900,9.5600,-0.0625,-0.1875,0.0000,0.0000,0.0000,0.0000,16382.0000,167.0000,-206.0000,0.0000,0.1217
28621120,101284.257812,20.520000,3.392516,0.2300,0.1900,9.5700,0.0625,0.0000,0.0000,0.0000,0.0000,0.0000,16382.0000,167.0000,-206.0000,0.0000,0.1466
28659445,101285.343750,20.520000,3.302035,0.2200,0.1900,9.5400,-0.0625,0.0625,-0.0625,0.0000,0.0000,0.0000,16382.0000,167.0000,-206.0000,0.0000,0.1832
28689706,101287.101562,20.510000,3.155640,0.2700,0.2000,9.5600,0.1250,0.1250,-0.0625,0.0000,0.0000,0.0000,16382.0000,167.0000,-206.0000,0.0000,0.1969
28719792,101287.101562,20.510000,3.155640,0.2300,0.2000,9.5600,0.0000,0.1875,0.0000,0.0000,0.0000,0.0000,16382.0000,167.0000,-206.0000,0.0000,0.2155
28751655,101288.171875,20.520000,3.066685,0.2100,0.1800,9.5700,0.0000,0.1875,-0.0625,0.0000,0.0000,0.0000,16382.0000,167.0000,-206.0000,0.0000,0.2085
28781682,101291.007812,20.510000,2.830324,0.2300,0.2100,9.5600,-0.0625,0.0625,-0.0625,0.0000,0.0000,0.0000,16382.0000,167.0000,-206.0000,0.0000,0.2381
28811780,101288.171875,20.520000,3.066685,0.2300,0.1800,9.6000,0.0000,-0.1250,0.1250,0.0000,0.0000,0.0000,16382.0000,167.0000,-206.0000,0.0000,0.2476
28841800,101293.156250,20.520000,2.651405,0.2400,0.2100,9.5500,0.0000,0.0625,0.0625,0.0000,0.0000,0.0000,16382.0000,167.0000,-206.0000,0.0000,0.2892
28875349,101293.156250,20.520000,2.651405,0.2300,0.1800,9.5500,0.0000,0.0625,-0.0625,0.0000,0.0000,0.0000,16382.0000,167.0000,-206.0000,0.0000,0.2441
28909523,101294.921875,20.510000,2.504511,0.2300,0.2100,9.5700,0.0000,0.1250,-0.1875,0.0000,0.0000,0.0000,16382.0000,167.0000,-206.0000,0.0000,0.1763
28940309,101293.156250,20.520000,2.651405,0.2300,0.1900,9.5600,0.0625,-0.0625,0.0625,0.0000,0.0000,0.0000,16382.0000,167.0000,-206.0000,0.0000,0.1058
28972144,101300.992188,20.520000,1.998783,0.2600,0.1900,9.5700,0.0625,0.0625,0.0000,0.0000,0.0000,0.0000,16382.0000,167.0000,-206.0000,0.0000,-0.0109
29002198,101296.000000,20.520000,2.414545,0.2600,0.1900,9.5700,-0.0625,-0.1250,0.0625,0.0000,0.0000,0.0000,16382.0000,167.0000,-206.0000,0.0000,-0.0749
29032201,101287.101562,20.510000,3.155640,0.2200,0.2000,9.5900,0.0000,0.1250,-0.0625,0.0000,0.0000,0.0000,16382.0000,167.0000,-206.0000,0.0000,-0.0926
29062231,101296.000000,20.520000,2.414545,0.2100,0.1900,9.5400,-0.2500,0.1875,-0.0625,0.0000,0.0000,0.0000,16382.0000,167.0000,-206.0000,0.0000,-0.1441
29100689,101296.000000,20.520000,2.414545,0.2600,0.1700,9.5600,-0.0625,0.2500,-0.1875,0.0000,0.0000,0.0000,16382.0000,167.0000,-206.0000,0.0000,-0.1756
29131078,101298.843750,20.510000,2.177691,0.2200,0.1900,9.5500,0.0000,0.0000,0.0625,0.0000,0.0000,0.0000,16382.0000,167.0000,-206.0000,0.0000,-0.2739
29161249,101287.101562,20.510000,3.155640,0.2200,0.1900,9.5700,-0.0625,0.0625,-0.1250,0.0000,0.0000,0.0000,16382.0000,167.0000,-206.0000,0.0000,-0.2134
29201354,101287.101562,20.510000,3.155640,0.2200,0.1700,9.5900,-0.0625,0.1250,-0.1875,0.0000,0.0000,0.0000,16382.0000,167.0000,-206.0000,0.0000,-0.1724
29251679,101299.921875,20.520000,2.088236,0.2400,0.1900,9.5500,0.0625,-0.1250,-0.0625,0.0000,0.0000,0.0000,16382.0000,167.0000,-206.0000,0.0000,-0.2069
29281770,101293.156250,20.520000,2.651405,0.2400,0.1800,9.5900,0.0000,0.0000,0.0000,0.0000,0.0000,0.0000,16382.0000,167.0000,-206.0000,0.0000,-0.2062
29313591,101292.093750,20.520000,2.739848,0.2500,0.2000,9.5600,0.0000,0.1250,-0.1875,0.0000,0.0000,0.0000,16382.0000,167.0000,-206.0000,0.0000,-0.1303
