timestamp,baro_pressure,baro_temperature,baro_altitude,accel_x,accel_y,accel_z,gyro_x,gyro_y,gyro_z,mag_x,mag_y,mag_z,quat_w,quat_x,quat_y,quat_z,fusion_altitude,fusion_velocity
11143723,101300.312500,20.230000,2.055708,0.2500,0.1800,9.5700,-0.0625,-0.0625,0.0000,0.0000,0.0000,0.0000,16382.0000,153.0000,-209.0000,0.0000,0.1645
11172282,101296.398438,20.230000,2.381507,0.2800,0.1600,9.5800,0.0000,0.0000,0.0625,0.0000,0.0000,0.0000,16382.0000,153.0000,-209.0000,0.0000,0.3550
11201553,101292.476562,20.230000,2.708333,0.2300,0.1600,9.5600,0.0000,-0.2500,0.0625,0.0000,0.0000,0.0000,16382.0000,153.0000,-209.0000,0.0000,0.5716
11231986,101292.476562,20.230000,2.708333,0.2200,0.1700,9.5600,0.0625,-0.1250,0.0000,0.0000,0.0000,0.0000,16382.0000,153.0000,-209.0000,0.0000,0.7883
11261810,101300.312500,20.230000,2.055708,0.2300,0.1800,9.5800,0.0625,0.0625,-0.0625,0.0000,0.0000,0.0000,16382.0000,153.0000,-209.0000,0.0000,0.9528
11291743,101292.476562,20.230000,2.708333,0.2400,0.1600,9.5900,0.0000,-0.0625,-0.0625,0.0000,0.0000,0.0000,16382.0000,153.0000,-209.0000,0.0000,1.1694
11322161,101302.460938,20.230000,1.876802,0.2400,0.1600,9.5700,0.0000,0.0000,0.1250,0.0000,0.0000,0.0000,16382.0000,153.0000,-209.0000,0.0000,1.3196
11351906,101284.656250,20.230000,3.359475,0.2200,0.1800,9.6000,0.0000,0.1250,0.0625,0.0000,0.0000,0.0000,16382.0000,153.0000,-209.0000,0.0000,1.5883
11382106,101291.406250,20.219999,2.797285,0.2300,0.1900,9.5700,0.1250,-0.2500,0.0000,0.0000,0.0000,0.0000,16382.0000,153.0000,-209.0000,0.0000,1.8121
11412233,101292.476562,20.230000,2.708333,0.2300,0.1700,9.5800,0.0625,-0.1875,0.0000,0.0000,0.0000,0.0000,16382.0000,153.0000,-209.0000,0.0000,2.0288
11442564,101297.468750,20.230000,2.292559,0.2200,0.1700,9.5800,-0.1250,0.0625,0.0000,0.0000,0.0000,0.0000,16382.0000,153.0000,-209.0000,0.0000,2.0066
11472406,101296.398438,20.230000,2.381507,0.2500,0.1600,9.5800,-0.0625,0.0625,-0.0625,0.0000,0.0000,0.0000,16382.0000,153.0000,-209.0000,0.0000,1.9590
11502506,101293.562500,20.230000,2.617858,0.2300,0.1700,9.5600,0.0000,0.1250,0.0000,0.0000,0.0000,0.0000,16382.0000,153.0000,-209.0000,0.0000,1.8976
11542319,101292.476562,20.230000,2.708333,0.2500,0.1700,9.5700,-0.0625,-0.0625,0.0000,0.0000,0.0000,0.0000,16382.0000,153.0000,-209.0000,0.0000,1.8434
11572714,101292.476562,20.230000,2.708333,0.2500,0.1700,9.5700,0.0000,0.0000,-0.0625,0.0000,0.0000,0.0000,16382.0000,153.0000,-209.0000,0.0000,1.8545
11603035,101283.578125,20.219999,3.449449,0.2500,0.1800,9.5500,-0.0625,0.1250,0.0625,0.0000,0.0000,0.0000,16382.0000,153.0000,-209.0000,0.0000,1.8596
11634364,101292.476562,20.230000,2.708333,0.2100,0.1900,9.5800,-0.0625,-0.1250,-0.0625,0.0000,0.0000,0.0000,16382.0000,153.0000,-209.0000,0.0000,1.8886
11663913,101288.570312,20.230000,3.033645,0.2400,0.1700,9.5500,0.0000,0.0000,-0.0625,0.0000,0.0000,0.0000,16382.0000,153.0000,-209.0000,0.0000,1.7954
11693432,101300.312500,20.230000,2.055708,0.2300,0.1700,9.5600,0.0000,0.1250,0.0000,0.0000,0.0000,0.0000,16382.0000,153.0000,-209.0000,0.0000,1.6801
11723507,101299.226562,20.219999,2.146178,0.2500,0.1900,9.5600,-0.1250,0.0625,0.0000,0.0000,0.0000,0.0000,16382.0000,153.0000,-209.0000,0.0000,1.5810
11754862,101287.492188,20.219999,3.123108,0.2500,0.1800,9.5700,-0.0625,-0.2500,-0.0625,0.0000,0.0000,0.0000,16382.0000,153.0000,-209.0000,0.0000,1.6015
11784414,101293.562500,20.230000,2.617858,0.2300,0.1600,9.5700,-0.0625,-0.0625,0.0000,0.0000,0.0000,0.0000,16382.0000,153.0000,-209.0000,0.0000,1.5728
11813966,101305.296875,20.230000,1.640468,0.2200,0.1700,9.5600,0.0625,0.0000,-0.0625,0.0000,0.0000,0.0000,16382.0000,153.0000,-209.0000,0.0000,1.4423
11845289,101280.750000,20.230000,3.684807,0.2400,0.1800,9.5800,-0.0625,-0.1250,0.0625,0.0000,0.0000,0.0000,16382.0000,153.0000,-209.0000,0.0000,1.4662
11874839,101280.750000,20.230000,3.684807,0.2400,0.1500,9.5600,0.1250,0.0000,-0.0625,0.0000,0.0000,0.0000,16382.0000,153.0000,-209.0000,0.0000,1.4902
11904415,101298.546875,20.230000,2.202596,0.2300,0.1700,9.5900,-0.1250,-0.0625,0.0000,0.0000,0.0000,0.0000,16382.0000,153.0000,-209.0000,0.0000,1.3214
11934207,101296.398438,20.230000,2.381507,0.2300,0.1800,9.5700,0.0000,-0.1875,0.0000,0.0000,0.0000,0.0000,16382.0000,153.0000,-209.0000,0.0000,1.2411
11973690,101294.640625,20.230000,2.527892,0.2300,0.1900,9.5800,0.1250,-0.0625,0.0000,0.0000,0.0000,0.0000,16382.0000,153.0000,-209.0000,0.0000,1.1400
12004344,101292.882812,20.240000,2.674278,0.2400,0.1800,9.5800,0.0625,0.3125,-0.1250,0.0000,0.0000,0.0000,16382.0000,153.0000,-209.0000,0.0000,1.1484
12034568,101298.546875,20.230000,2.202596,0.2400,0.1700,9.5900,-0.0625,-0.0625,0.1250,0.0000,0.0000,0.0000,16382.0000,153.0000,-209.0000,0.0000,1.1100
12065993,101294.640625,20.230000,2.527892,0.2400,0.1700,9.5500,0.0000,-0.1250,0.1250,0.0000,0.0000,0.0000,16382.0000,153.0000,-209.0000,0.0000,0.9999
12095542,101296.796875,20.240000,2.348469,0.2300,0.1800,9.5700,-0.1250,-0.0625,-0.0625,0.0000,0.0000,0.0000,16382.0000,153.0000,-209.0000,0.0000,0.9260
12125075,101296.796875,20.240000,2.348469,0.2200,0.1600,9.5800,0.0000,0.1250,-0.1875,0.0000,0.0000,0.0000,16382.0000,153.0000,-209.0000,0.0000,0.9498
12156368,101295.718750,20.240000,2.437926,0.2500,0.1700,9.5900,0.0000,0.0625,0.0000,0.0000,0.0000,0.0000,16382.0000,153.0000,-209.0000,0.0000,0.7764
12185937,101296.796875,20.240000,2.348469,0.2200,0.1600,9.5700,0.0000,-0.1250,-0.0625,0.0000,0.0000,0.0000,16382.0000,153.0000,-209.0000,0.0000,0.5958
12215491,101291.812500,20.240000,2.763229,0.2300,0.1800,9.5600,-0.0625,0.0625,0.0000,0.0000,0.0000,0.0000,16382.0000,153.0000,-209.0000,0.0000,0.5966
12245287,101290.726562,20.230000,2.853706,0.2400,0.1600,9.5800,0.0625,-0.1250,0.0625,0.0000,0.0000,0.0000,16382.0000,153.0000,-209.0000,0.0000,0.5867
12276599,101300.710938,20.240000,2.022671,0.2600,0.2000,9.5700,0.0000,-0.0625,-0.0625,0.0000,0.0000,0.0000,16382.0000,153.0000,-209.0000,0.0000,0.4957
12306149,101292.882812,20.240000,2.674278,0.2400,0.1800,9.5700,0.1250,-0.1250,0.0000,0.0000,0.0000,0.0000,16382.0000,153.0000,-209.0000,0.0000,0.4422
12335687,101296.796875,20.240000,2.348469,0.2300,0.1700,9.5700,0.0625,-0.0625,-0.1250,0.0000,0.0000,0.0000,16382.0000,153.0000,-209.0000,0.0000,0.4099
12375175,101294.640625,20.230000,2.527892,0.2400,0.1800,9.5800,-0.1875,0.1250,-0.0625,0.0000,0.0000,0.0000,16382.0000,153.0000,-209.0000,0.0000,0.3593
12405625,101291.812500,20.240000,2.763229,0.2600,0.1700,9.5700,0.0625,0.0000,0.0000,0.0000,0.0000,0.0000,16382.0000,153.0000,-209.0000,0.0000,0.3455
12445948,101294.640625,20.230000,2.527892,0.2200,0.1600,9.5900,-0.0625,-0.1250,0.0625,0.0000,0.0000,0.0000,16382.0000,153.0000,-209.0000,0.0000,0.3129
12498700,101291.812500,20.240000,2.763229,0.2200,0.1500,9.5700,-0.0625,-0.1875,0.0000,0.0000,0.0000,0.0000,16382.0000,153.0000,-209.0000,0.0000,0.2902
12533452,101303.539062,20.240000,1.786842,0.2500,0.1800,9.5700,0.0000,0.0625,0.0000,0.0000,0.0000,0.0000,16382.0000,153.0000,-209.0000,0.0000,0.1983
12565818,101304.617188,20.240000,1.697391,0.2200,0.1600,9.5800,-0.0625,0.0625,-0.0625,0.0000,0.0000,0.0000,16382.0000,153.0000,-209.0000,0.0000,0.0577
12596287,101288.968750,20.240000,3.000097,0.2300,0.1600,9.6000,-0.0625,0.0625,0.0000,0.0000,0.0000,0.0000,16382.0000,153.0000,-209.0000,0.0000,0.0124
12627625,101300.710938,20.240000,2.022671,0.2300,0.1700,9.5700,-0.1250,-0.0625,-0.0625,0.0000,0.0000,0.0000,16382.0000,153.0000,-209.0000,0.0000,-0.0281
12657163,101288.968750,20.240000,3.000097,0.2400,0.1700,9.5800,-0.0625,0.0625,0.0000,0.0000,0.0000,0.0000,16382.0000,153.0000,-209.0000,0.0000,-0.0555
12686823,101295.718750,20.240000,2.437926,0.2400,0.1600,9.5600,0.0625,-0.1875,-0.1250,0.0000,0.0000,0.0000,16382.0000,153.0000,-209.0000,0.0000,-0.0953
12718051,101304.617188,20.240000,1.697391,0.2300,0.1700,9.5900,-0.0625,-0.1250,-0.0625,0.0000,0.0000,0.0000,16382.0000,153.0000,-209.0000,0.0000,-0.1712
12747580,101296.796875,20.240000,2.348469,0.2200,0.1700,9.5800,0.1250,0.0000,0.0000,0.0000,0.0000,0.0000,16382.0000,153.0000,-209.0000,0.0000,-0.2120
12777125,101300.710938,20.240000,2.022671,0.2400,0.1500,9.5700,0.0000,-0.1250,0.0625,0.0000,0.0000,0.0000,16382.0000,153.0000,-209.0000,0.0000,-0.2488
12807197,101298.953125,20.250000,2.169050,0.2500,0.1700,9.5800,-0.0625,-0.1250,-0.0625,0.0000,0.0000,0.0000,16382.0000,153.0000,-209.0000,0.0000,-0.2975
12846680,101292.882812,20.240000,2.674278,0.2400,0.1700,9.5900,0.0000,-0.0625,-0.1875,0.0000,0.0000,0.0000,16382.0000,153.0000,-209.0000,0.0000,-0.2211
12877320,101288.968750,20.240000,3.000097,0.2200,0.1700,9.5900,0.1250,0.0000,-0.0625,0.0000,0.0000,0.0000,16382.0000,153.0000,-209.0000,0.0000,-0.0967
12907359,101287.218750,20.250000,3.145982,0.2500,0.1800,9.5900,0.0625,-0.1250,0.0000,0.0000,0.0000,0.0000,16382.0000,153.0000,-209.0000,0.0000,-0.1075
12938700,101288.968750,20.240000,3.000097,0.2500,0.1800,9.5700,0.0625,0.0000,0.0625,0.0000,0.0000,0.0000,16382.0000,153.0000,-209.0000,0.0000,-0.0025
12968255,101297.867188,20.250000,2.259013,0.2200,0.1700,9.5600,-0.0625,0.0625,0.0000,0.0000,0.0000,0.0000,16382.0000,153.0000,-209.0000,0.0000,-0.0659
12997857,101291.812500,20.240000,2.763229,0.2400,0.1800,9.5600,0.1875,-0.0625,0.0000,0.0000,0.0000,0.0000,16382.0000,153.0000,-209.0000,0.0000,-0.0344
13027905,101291.812500,20.240000,2.763229,0.2400,0.1500,9.5600,-0.0625,0.0000,0.0625,0.0000,0.0000,0.0000,16382.0000,153.0000,-209.0000,0.0000,0.0627
13059238,101296.796875,20.240000,2.348469,0.2500,0.1700,9.5900,0.0625,0.0000,0.0000,0.0000,0.0000,0.0000,16382.0000,153.0000,-209.0000,0.0000,0.0634
13088746,101296.796875,20.240000,2.348469,0.2600,0.1700,9.5600,-0.0625,-0.1875,0.0000,0.0000,0.0000,0.0000,16382.0000,153.0000,-209.0000,0.0000,0.1014
13118337,101293.960938,20.250000,2.584311,0.2000,0.1700,9.5900,0.0000,0.0625,0.0000,0.0000,0.0000,0.0000,16382.0000,153.0000,-209.0000,0.0000,0.1454
13149687,101288.968750,20.240000,3.000097,0.2000,0.1600,9.5800,0.0000,0.0000,-0.0625,0.0000,0.0000,0.0000,16382.0000,153.0000,-209.0000,0.0000,0.1721
13179252,101296.796875,20.240000,2.348469,0.2800,0.1800,9.5700,0.0000,0.0000,0.0625,0.0000,0.0000,0.0000,16382.0000,153.0000,-209.0000,0.0000,0.1290
13208757,101290.046875,20.250000,2.910635,0.2900,0.1700,9.5700,0.0000,0.0000,0.0000,0.0000,0.0000,0.0000,16382.0000,153.0000,-209.0000,0.0000,0.1014
13248081,101296.796875,20.240000,2.348469,0.2100,0.1700,9.6000,-0.0625,-0.0625,0.0000,0.0000,0.0000,0.0000,16382.0000,153.0000,-209.0000,0.0000,0.0499
13278506,101291.132812,20.250000,2.820158,0.2200,0.1700,9.5900,-0.0625,0.0625,-0.0625,0.0000,0.0000,0.0000,16382.0000,153.0000,-209.0000,0.0000,0.0908
13308746,101291.132812,20.250000,2.820158,0.2500,0.1800,9.5600,-0.0625,0.0625,0.0000,0.0000,0.0000,0.0000,16382.0000,153.0000,-209.0000,0.0000,0.0830
13338872,101297.867188,20.250000,2.259013,0.2600,0.1800,9.5800,-0.1250,0.0000,0.0000,0.0000,0.0000,0.0000,16382.0000,153.0000,-209.0000,0.0000,0.0498
13370182,101293.960938,20.250000,2.584311,0.2200,0.1800,9.6000,0.0000,-0.1250,0.0625,0.0000,0.0000,0.0000,16382.0000,153.0000,-209.0000,0.0000,0.0741
13399733,101292.882812,20.240000,2.674278,0.2200,0.1500,9.5500,0.1250,-0.1250,-0.0625,0.0000,0.0000,0.0000,16382.0000,153.0000,-209.0000,0.0000,0.0860
13429287,101300.710938,20.240000,2.022671,0.2200,0.1800,9.5600,0.0625,-0.0625,0.0625,0.0000,0.0000,0.0000,16382.0000,153.0000,-209.0000,0.0000,0.0631
13460606,101297.867188,20.250000,2.259013,0.2500,0.1800,9.5700,0.0000,-0.1875,0.0625,0.0000,0.0000,0.0000,16382.0000,153.0000,-209.0000,0.0000,0.0175
13490174,101298.953125,20.250000,2.169050,0.2300,0.1800,9.5900,0.0000,0.1250,0.0625,0.0000,0.0000,0.0000,16382.0000,153.0000,-209.0000,0.0000,0.0002
13519700,101285.062500,20.240000,3.325418,0.2200,0.1700,9.5900,-0.0625,-0.1250,0.0625,0.0000,0.0000,0.0000,16382.0000,153.0000,-209.0000,0.0000,0.0228
13549601,101291.132812,20.250000,2.820158,0.2300,0.1700,9.5700,0.0625,0.0000,0.0000,0.0000,0.0000,0.0000,16382.0000,153.0000,-209.0000,0.0000,0.0641
13580932,101297.867188,20.250000,2.259013,0.2400,0.1800,9.6000,-0.0625,-0.1250,-0.0625,0.0000,0.0000,0.0000,16382.0000,153.0000,-209.0000,0.0000,0.0163
13610492,101295.039062,20.250000,2.494853,0.2200,0.1700,9.5600,-0.0625,0.0000,0.0000,0.0000,0.0000,0.0000,16382.0000,153.0000,-209.0000,0.0000,-0.0220
13640035,101291.132812,20.250000,2.820158,0.2400,0.1600,9.5900,0.0625,0.0000,0.0000,0.0000,0.0000,0.0000,16382.0000,153.0000,-209.0000,0.0000,0.0282
13679489,101295.039062,20.250000,2.494853,0.2600,0.1700,9.5900,0.0625,0.1250,0.0000,0.0000,0.0000,0.0000,16382.0000,153.0000,-209.0000,0.0000,0.0163
13709962,101297.867188,20.250000,2.259013,0.2300,0.2000,9.5900,0.0000,0.0625,0.0000,0.0000,0.0000,0.0000,16382.0000,153.0000,-209.0000,0.0000,-0.0234
13740217,101302.859375,20.250000,1.843765,0.2400,0.1700,9.5500,0.0000,0.0000,0.0000,0.0000,0.0000,0.0000,16382.0000,153.0000,-209.0000,0.0000,-0.0294
13771520,101292.210938,20.260000,2.730190,0.2300,0.1800,9.5600,0.0000,0.2500,-0.1250,0.0000,0.0000,0.0000,16382.0000,153.0000,-209.0000,0.0000,0.0101
13801073,101288.968750,20.240000,3.000097,0.2400,0.1600,9.5600,0.0000,0.0625,0.1250,0.0000,0.0000,0.0000,16382.0000,153.0000,-209.0000,0.0000,0.0885
13830586,101288.968750,20.240000,3.000097,0.2500,0.1700,9.5900,0.0000,0.1250,0.0625,0.0000,0.0000,0.0000,16382.0000,153.0000,-209.0000,0.0000,0.0530
13860446,101298.953125,20.250000,2.169050,0.2300,0.1600,9.5800,0.0000,0.1875,-0.1875,0.0000,0.0000,0.0000,16382.0000,153.0000,-209.0000,0.0000,-0.0150
13891740,101298.953125,20.250000,2.169050,0.2600,0.1700,9.5800,0.0625,0.1875,0.0000,0.0000,0.0000,0.0000,16382.0000,153.0000,-209.0000,0.0000,-0.0139
13921347,101292.210938,20.260000,2.730190,0.2500,0.1700,9.5900,-0.1250,0.1875,-0.0625,0.0000,0.0000,0.0000,16382.0000,153.0000,-209.0000,0.0000,0.0020
13950917,101301.789062,20.250000,1.932709,0.2400,0.1600,9.5900,-0.3750,0.1250,-0.0625,0.0000,0.0000,0.0000,16382.0000,153.0000,-209.0000,0.0000,-0.0749
13982262,101291.132812,20.250000,2.820158,0.2400,0.1600,9.5800,0.0000,-0.0625,0.0000,0.0000,0.0000,0.0000,16382.0000,153.0000,-209.0000,0.0000,-0.0435
14011715,101291.132812,20.250000,2.820158,0.2300,0.1700,9.5700,0.5000,-0.0625,-0.1250,0.0000,0.0000,0.0000,16382.0000,153.0000,-209.0000,0.0000,0.0068
14041334,101292.210938,20.260000,2.730190,0.2400,0.1700,9.5700,-0.1250,-0.1250,0.0625,0.0000,0.0000,0.0000,16382.0000,154.0000,-209.0000,0.0000,0.0961
14101402,101298.953125,20.250000,2.169050,0.2400,0.1700,9.5800,-0.1875,-0.1250,0.0625,0.0000,0.0000,0.0000,16382.0000,154.0000,-209.0000,0.0000,0.0323
14140950,101298.953125,20.250000,2.169050,0.2500,0.1700,9.5900,0.0000,-0.1250,0.0000,0.0000,0.0000,0.0000,16382.0000,154.0000,-209.0000,0.0000,-0.0602
14171398,101287.218750,20.250000,3.145982,0.2200,0.1700,9.5600,0.1875,0.1875,0.0625,0.0000,0.0000,0.0000,16382.0000,154.0000,-209.0000,0.0000,-0.0485
14201647,101290.046875,20.250000,2.910635,0.2200,0.1800,9.5600,0.1875,-0.1875,-0.0625,0.0000,0.0000,0.0000,16382.0000,154.0000,-209.0000,0.0000,0.0079
14233022,101291.132812,20.250000,2.820158,0.2400,0.1800,9.5700,0.0625,-0.0625,-0.0625,0.0000,0.0000,0.0000,16382.0000,154.0000,-209.0000,0.0000,0.0766
14262523,101291.132812,20.250000,2.820158,0.2400,0.1700,9.5700,-0.0625,0.0625,0.0625,0.0000,0.0000,0.0000,16382.0000,154.0000,-209.0000,0.0000,0.0779
14292124,101300.031250,20.260000,2.079087,0.2500,0.1700,9.6000,0.0625,-0.1250,0.0000,0.0000,0.0000,0.0000,16382.0000,154.0000,-209.0000,0.0000,0.0849
14323502,101291.132812,20.250000,2.820158,0.2400,0.1600,9.5600,0.1875,0.0625,-0.0625,0.0000,0.0000,0.0000,16382.0000,154.0000,-209.0000,0.0000,0.0755
14353067,101301.109375,20.260000,1.989126,0.2200,0.1600,9.5800,0.1250,-0.0625,0.0625,0.0000,0.0000,0.0000,16382.0000,154.0000,-209.0000,0.0000,-0.0069
14382602,101293.960938,20.250000,2.584311,0.2600,0.1800,9.5700,0.0000,-0.1875,-0.0625,0.0000,0.0000,0.0000,16382.0000,154.0000,-209.0000,0.0000,-0.0298
14412352,101293.281250,20.260000,2.641239,0.2300,0.1700,9.5800,0.1250,-0.0625,-0.0625,0.0000,0.0000,0.0000,16382.0000,154.0000,-209.0000,0.0000,0.0180
14443680,101300.031250,20.260000,2.079087,0.2200,0.1700,9.5700,0.0000,-0.1250,0.0000,0.0000,0.0000,0.0000,16382.0000,154.0000,-209.0000,0.0000,0.0275
14473263,101293.960938,20.250000,2.584311,0.2200,0.1600,9.5700,0.0625,-0.0625,0.0000,0.0000,0.0000,0.0000,16382.0000,154.0000,-209.0000,0.0000,-0.0175
14502794,101295.039062,20.250000,2.494853,0.2400,0.1500,9.6000,0.0625,-0.0625,-0.0625,0.0000,0.0000,0.0000,16382.0000,154.0000,-209.0000,0.0000,-0.0489
14542304,101301.109375,20.260000,1.989126,0.2400,0.1800,9.5500,-0.0625,0.1250,-0.0625,0.0000,0.0000,0.0000,16382.0000,154.0000,-209.0000,0.0000,-0.1266
14572723,101288.289062,20.260000,3.057027,0.2200,0.1800,9.6100,-0.0625,0.0000,-0.1250,0.0000,0.0000,0.0000,16382.0000,154.0000,-209.0000,0.0000,-0.1088
14603002,101297.867188,20.250000,2.259013,0.2400,0.1700,9.5600,-0.0625,-0.0625,-0.0625,0.0000,0.0000,0.0000,16382.0000,154.0000,-209.0000,0.0000,-0.0808
14633063,101295.039062,20.250000,2.494853,0.2300,0.1800,9.5500,0.0000,0.0625,-0.0625,0.0000,0.0000,0.0000,16382.0000,154.0000,-209.0000,0.0000,-0.1162
14664381,101300.031250,20.260000,2.079087,0.2500,0.1800,9.5700,-0.1250,-0.0625,-0.1250,0.0000,0.0000,0.0000,16382.0000,154.0000,-209.0000,0.0000,-0.1018
14693886,101297.203125,20.260000,2.314415,0.2200,0.1600,9.5700,0.0625,-0.0625,0.0625,0.0000,0.0000,0.0000,16382.0000,154.0000,-209.0000,0.0000,-0.1234
14723485,101301.109375,20.260000,1.989126,0.2500,0.1700,9.5800,-0.0625,0.0625,-0.0625,0.0000,0.0000,0.0000,16382.0000,154.0000,-209.0000,0.0000,-0.1684
14754793,101295.039062,20.250000,2.494853,0.2500,0.1600,9.5900,-2.2500,0.0000,-0.0625,0.0000,0.0000,0.0000,16382.0000,150.0000,-209.0000,0.0000,-0.1298
14784377,101292.210938,20.260000,2.730190,0.0600,-0.1700,9.6000,-1.7500,-0.0625,-11.6875,0.0000,0.0000,0.0000,16382.0000,138.0000,-209.0000,-21.0000,-0.1116
14813908,101284.382812,20.260000,3.382350,0.2500,0.3600,9.5500,2.6875,-0.1250,-22.9375,0.0000,0.0000,0.0000,16382.0000,145.0000,-208.0000,-113.0000,-0.0435
14845247,101287.218750,20.250000,3.145982,0.2700,0.2200,9.5700,-0.3750,0.1250,-9.2500,0.0000,0.0000,0.0000,16381.0000,155.0000,-208.0000,-172.0000,0.0657
14874737,101293.281250,20.260000,2.641239,0.2400,0.1800,9.5700,1.0625,-0.0625,0.0000,0.0000,0.0000,0.0000,16381.0000,158.0000,-208.0000,-184.0000,0.0277
14904259,101289.367188,20.260000,2.967057,0.2200,0.1400,9.5900,-0.7500,0.0625,0.0625,0.0000,0.0000,0.0000,16381.0000,157.0000,-208.0000,-184.0000,0.0843
14934079,101294.359375,20.270000,2.551273,0.2300,0.1900,9.5800,0.1250,0.0000,0.0000,0.0000,0.0000,0.0000,16381.0000,157.0000,-208.0000,-184.0000,0.0906
14973588,101293.281250,20.260000,2.641239,0.2300,0.1700,9.6000,0.0625,-0.0625,0.0000,0.0000,0.0000,0.0000,16381.0000,157.0000,-208.0000,-184.0000,0.1475
15004138,101293.281250,20.260000,2.641239,0.2500,0.1800,9.5800,0.0625,0.1250,0.0625,0.0000,0.0000,0.0000,16381.0000,157.0000,-208.0000,-184.0000,0.1678
15034211,101293.281250,20.260000,2.641239,0.2400,0.1500,9.5700,-0.0625,0.1250,-0.1250,0.0000,0.0000,0.0000,16381.0000,157.0000,-208.0000,-184.0000,0.2254
15065541,101291.132812,20.250000,2.820158,0.2400,0.1700,9.5800,0.0625,0.1875,0.0000,0.0000,0.0000,0.0000,16381.0000,157.0000,-208.0000,-184.0000,0.2449
15095065,101293.281250,20.260000,2.641239,0.2500,0.1600,9.5900,-0.1250,0.1250,0.0000,0.0000,0.0000,0.0000,16381.0000,157.0000,-208.0000,-184.0000,0.2497
15124669,101301.109375,20.260000,1.989126,0.2400,0.1700,9.5500,0.0000,0.1250,0.0625,0.0000,0.0000,0.0000,16381.0000,157.0000,-208.0000,-184.0000,0.1270
15156033,101285.460938,20.260000,3.292377,0.2400,0.1800,9.5700,-0.0625,0.0000,0.0625,0.0000,0.0000,0.0000,16381.0000,157.0000,-208.0000,-184.0000,0.1209
15185559,101301.109375,20.260000,1.989126,0.2400,0.1600,9.5600,-0.0625,-0.2500,0.0000,0.0000,0.0000,0.0000,16381.0000,157.0000,-208.0000,-184.0000,0.0658
15215114,101302.187500,20.270000,1.899673,0.2300,0.1700,9.5900,-0.1250,0.0000,-0.0625,0.0000,0.0000,0.0000,16381.0000,157.0000,-208.0000,-184.0000,-0.0225
15244958,101298.273438,20.270000,2.225468,0.2300,0.1700,9.5500,0.0625,0.0000,-0.0625,0.0000,0.0000,0.0000,16381.0000,157.0000,-208.0000,-184.0000,-0.0497
15276287,101299.351562,20.270000,2.135505,0.2400,0.1600,9.5900,-0.1250,0.1250,-0.0625,0.0000,0.0000,0.0000,16381.0000,157.0000,-208.0000,-184.0000,-0.0978
15305885,101297.203125,20.260000,2.314415,0.2300,0.1700,9.5700,-0.0625,0.1250,0.0625,0.0000,0.0000,0.0000,16381.0000,157.0000,-208.0000,-184.0000,-0.1399
15335436,101286.539062,20.270000,3.202404,0.2500,0.1800,9.5700,-0.1250,0.1250,0.0625,0.0000,0.0000,0.0000,16381.0000,157.0000,-208.0000,-184.0000,-0.0932
15374892,101291.531250,20.270000,2.787119,0.2200,0.1600,9.5800,0.1250,0.1250,0.0000,0.0000,0.0000,0.0000,16381.0000,157.0000,-208.0000,-184.0000,-0.0922
15405393,101293.281250,20.260000,2.641239,0.2300,0.1500,9.5800,0.0000,0.1250,0.0625,0.0000,0.0000,0.0000,16381.0000,157.0000,-208.0000,-184.0000,-0.0851
15435622,101285.460938,20.260000,3.292377,0.2400,0.1700,9.5700,0.0000,0.0000,0.0000,0.0000,0.0000,0.0000,16381.0000,157.0000,-208.0000,-184.0000,0.0228
15467000,101295.437500,20.270000,2.461815,0.2300,0.1700,9.5700,0.0000,0.0625,-0.0625,0.0000,0.0000,0.0000,16381.0000,157.0000,-208.0000,-184.0000,-0.0661
15496494,101293.281250,20.260000,2.641239,0.2500,0.1700,9.5800,-0.0625,0.1250,0.0000,0.0000,0.0000,0.0000,16381.0000,157.0000,-208.0000,-184.0000,0.0009
15526092,101291.531250,20.270000,2.787119,0.2400,0.1800,9.6000,0.1250,0.1875,0.0000,0.0000,0.0000,0.0000,16381.0000,157.0000,-208.0000,-184.0000,0.0725
15555997,101294.359375,20.270000,2.551273,0.2400,0.1700,9.5800,-0.0625,0.0625,0.0000,0.0000,0.0000,0.0000,16381.0000,157.0000,-208.0000,-184.0000,0.1105
15587381,101297.203125,20.260000,2.314415,0.2500,0.1600,9.5800,0.0000,-0.0625,-0.1250,0.0000,0.0000,0.0000,16381.0000,157.0000,-208.0000,-184.0000,0.1385
15616923,101303.257812,20.270000,1.810221,0.2300,0.1700,9.5700,0.0000,-0.0625,-0.0625,0.0000,0.0000,0.0000,16381.0000,157.0000,-208.0000,-184.0000,0.1065
15676770,101298.273438,20.270000,2.225468,0.2400,0.1700,9.5500,0.0625,0.0000,-0.0625,0.0000,0.0000,0.0000,16381.0000,157.0000,-208.0000,-184.0000,0.0076
15708548,101291.531250,20.270000,2.787119,0.2500,0.1600,9.5800,0.0000,0.0000,0.0625,0.0000,0.0000,0.0000,16381.0000,157.0000,-208.0000,-184.0000,-0.0047
15737971,101303.257812,20.270000,1.810221,0.2400,0.1800,9.5600,-0.0625,0.0000,0.0000,0.0000,0.0000,0.0000,16381.0000,157.0000,-208.0000,-184.0000,-0.0611
15767482,101303.257812,20.270000,1.810221,0.2400,0.1600,9.5800,0.0625,-0.0625,0.0625,0.0000,0.0000,0.0000,16381.0000,157.0000,-208.0000,-184.0000,-0.1873
15806454,101293.281250,20.260000,2.641239,0.2300,0.1500,9.5600,-0.0625,0.0000,0.0625,0.0000,0.0000,0.0000,16381.0000,157.0000,-208.0000,-184.0000,-0.1658
15836920,101291.531250,20.270000,2.787119,0.2400,0.1700,9.5800,-0.0625,-0.2500,0.0625,0.0000,0.0000,0.0000,16381.0000,157.0000,-208.0000,-184.0000,-0.1505
15866979,101303.257812,20.270000,1.810221,0.2500,0.1800,9.6000,0.0000,-0.1250,-0.0625,0.0000,0.0000,0.0000,16381.0000,157.0000,-208.0000,-184.0000,-0.2429
15897073,101291.531250,20.270000,2.787119,0.2500,0.1700,9.5700,0.1250,-0.1250,0.0000,0.0000,0.0000,0.0000,16381.0000,157.0000,-208.0000,-184.0000,-0.2186
15928300,101305.421875,20.280001,1.630303,0.2400,0.1800,9.5700,-0.0625,-0.1250,0.0000,0.0000,0.0000,0.0000,16381.0000,157.0000,-208.0000,-184.0000,-0.2798
15957898,101288.687500,20.270000,3.023479,0.2200,0.1700,9.5600,-0.0625,-0.1875,-0.1875,0.0000,0.0000,0.0000,16381.0000,157.0000,-208.0000,-184.0000,-0.1673
15987551,101291.531250,20.270000,2.787119,0.2600,0.1700,9.5700,-0.0625,-0.0625,0.0000,0.0000,0.0000,0.0000,16381.0000,157.0000,-208.0000,-184.0000,-0.1141
16018881,101303.257812,20.270000,1.810221,0.2400,0.1900,9.5800,0.0000,0.1250,0.0000,0.0000,0.0000,0.0000,16381.0000,157.0000,-208.0000,-184.0000,-0.2064
16048438,101291.531250,20.270000,2.787119,0.2300,0.1600,9.5700,-0.0625,-0.1250,0.0000,0.0000,0.0000,0.0000,16381.0000,157.0000,-208.0000,-184.0000,-0.1127
16078005,101296.523438,20.270000,2.371342,0.2300,0.1600,9.5300,0.0000,0.1250,-0.0625,0.0000,0.0000,0.0000,16381.0000,157.0000,-208.0000,-184.0000,-0.0542
16109356,101292.601562,20.270000,2.697659,0.2400,0.1700,9.5800,0.0000,0.0000,0.0000,0.0000,0.0000,0.0000,16381.0000,157.0000,-208.0000,-184.0000,-0.0627
16138909,101299.351562,20.270000,2.135505,0.2400,0.1700,9.5900,0.0000,0.1875,-0.0625,0.0000,0.0000,0.0000,16381.0000,157.0000,-208.0000,-184.0000,-0.1094
16168441,101300.429688,20.270000,2.046051,0.2300,0.1800,9.5500,-0.0625,0.0000,0.0625,0.0000,0.0000,0.0000,16381.0000,157.0000,-208.0000,-184.0000,-0.0816
16198258,101287.609375,20.270000,3.113450,0.2300,0.1600,9.5800,0.0625,0.0000,0.0625,0.0000,0.0000,0.0000,16381.0000,157.0000,-208.0000,-184.0000,-0.0613
16237729,101295.437500,20.270000,2.461815,0.2400,0.1700,9.5700,-0.1250,0.1250,-0.1250,0.0000,0.0000,0.0000,16381.0000,157.0000,-208.0000,-184.0000,0.0142
16268378,101288.687500,20.270000,3.023479,0.2600,0.1800,9.5700,0.0625,-0.3125,0.0625,0.0000,0.0000,0.0000,16381.0000,157.0000,-208.0000,-184.0000,0.0000
16298451,101295.437500,20.270000,2.461815,0.2200,0.1500,9.5600,0.0000,0.0000,-0.0625,0.0000,0.0000,0.0000,16381.0000,157.0000,-208.0000,-184.0000,-0.0420
16329766,101288.687500,20.270000,3.023479,0.2200,0.1700,9.5600,0.1250,0.1250,-0.1250,0.0000,0.0000,0.0000,16381.0000,157.0000,-208.0000,-184.0000,0.0688
16359380,101296.523438,20.270000,2.371342,0.2300,0.1800,9.5500,0.0000,0.0000,0.0000,0.0000,0.0000,0.0000,16381.0000,157.0000,-208.0000,-184.0000,0.0344
16388933,101296.523438,20.270000,2.371342,0.2400,0.1600,9.5700,0.0625,0.0000,-0.0625,0.0000,0.0000,0.0000,16381.0000,157.0000,-208.0000,-184.0000,0.0546
16420251,101291.531250,20.270000,2.787119,0.2200,0.1700,9.5700,0.0000,-0.0625,0.0625,0.0000,0.0000,0.0000,16381.0000,157.0000,-208.0000,-184.0000,0.0707
16449816,101295.437500,20.270000,2.461815,0.2400,0.1700,9.5900,0.0000,0.0625,0.0625,0.0000,0.0000,0.0000,16381.0000,157.0000,-208.0000,-184.0000,0.1069
16479366,101291.531250,20.270000,2.787119,0.2400,0.1700,9.5500,-0.0625,-0.0625,0.0625,0.0000,0.0000,0.0000,16381.0000,157.0000,-208.0000,-184.0000,0.1846
16509250,101288.687500,20.270000,3.023479,0.2300,0.1800,9.5700,0.0000,-0.0625,0.0625,0.0000,0.0000,0.0000,16381.0000,157.0000,-208.0000,-184.0000,0.1662
16540572,101295.437500,20.270000,2.461815,0.2400,0.1500,9.5700,0.0000,0.1875,-0.0625,0.0000,0.0000,0.0000,16381.0000,157.0000,-208.0000,-184.0000,0.1698
16570147,101292.601562,20.270000,2.697659,0.2400,0.1700,9.5700,0.0000,-0.0625,0.1250,0.0000,0.0000,0.0000,16381.0000,157.0000,-208.0000,-184.0000,0.1361
16599661,101296.523438,20.270000,2.371342,0.2500,0.1800,9.5800,-0.0625,-0.0625,0.0000,0.0000,0.0000,0.0000,16381.0000,157.0000,-208.0000,-184.0000,0.1324
16639189,101300.429688,20.270000,2.046051,0.2400,0.1700,9.5700,-0.1875,0.1250,0.0625,0.0000,0.0000,0.0000,16381.0000,157.0000,-208.0000,-184.0000,0.0502
16669640,101295.437500,20.270000,2.461815,0.2400,0.1500,9.5700,0.0000,0.0625,0.0625,0.0000,0.0000,0.0000,16381.0000,157.0000,-208.0000,-184.0000,0.0628
16699911,101281.953125,20.280001,3.584665,0.2500,0.1800,9.5700,-0.0625,-0.0625,-0.1250,0.0000,0.0000,0.0000,16381.0000,157.0000,-208.0000,-184.0000,0.1522
16731238,101296.523438,20.270000,2.371342,0.2300,0.1600,9.5700,0.0000,-0.1875,0.1250,0.0000,0.0000,0.0000,16381.0000,157.0000,-208.0000,-184.0000,0.1291
16760803,101293.679688,20.280001,2.608201,0.2400,0.1700,9.5800,0.0000,0.0625,-0.0625,0.0000,0.0000,0.0000,16381.0000,157.0000,-208.0000,-184.0000,0.1313
16790355,101288.687500,20.270000,3.023479,0.2200,0.1700,9.5900,-0.0625,0.0625,-0.0625,0.0000,0.0000,0.0000,16381.0000,157.0000,-208.0000,-184.0000,0.1325
16820229,101294.757812,20.280001,2.518234,0.2500,0.1800,9.5500,-0.1250,-0.1250,-0.0625,0.0000,0.0000,0.0000,16381.0000,157.0000,-208.0000,-184.0000,0.0761
16851585,101289.773438,20.280001,2.933509,0.2400,0.1800,9.5700,0.0000,0.1250,-0.1875,0.0000,0.0000,0.0000,16381.0000,157.0000,-208.0000,-184.0000,0.1073
16881156,101291.929688,20.290001,2.753572,0.2300,0.1700,9.5700,0.0000,0.1250,0.0000,0.0000,0.0000,0.0000,16381.0000,157.0000,-208.0000,-184.0000,0.1041
16910686,101295.843750,20.290001,2.427760,0.2500,0.1800,9.5600,-0.0625,-0.1875,0.0000,0.0000,0.0000,0.0000,16381.0000,157.0000,-208.0000,-184.0000,0.1253
16942037,101302.578125,20.280001,1.867145,0.2400,0.1700,9.5800,0.0625,-0.0625,0.0000,0.0000,0.0000,0.0000,16381.0000,157.0000,-208.0000,-184.0000,0.1258
16971597,101281.953125,20.280001,3.584665,0.2500,0.1700,9.5800,0.0000,0.1875,-0.1250,0.0000,0.0000,0.0000,16381.0000,157.0000,-208.0000,-184.0000,0.2192
17001127,101289.773438,20.280001,2.933509,0.2600,0.1500,9.5800,0.0625,0.0000,0.0625,0.0000,0.0000,0.0000,16381.0000,157.0000,-208.0000,-184.0000,0.1612
17040442,101300.429688,20.270000,2.046051,0.2300,0.1900,9.5600,0.0000,0.0625,0.0625,0.0000,0.0000,0.0000,16381.0000,157.0000,-208.0000,-184.0000,0.1370
17070917,101284.781250,20.270000,3.348800,0.2400,0.1800,9.5800,-0.0625,0.0625,0.0000,0.0000,0.0000,0.0000,16381.0000,157.0000,-208.0000,-184.0000,0.1969
17101220,101299.750000,20.290001,2.102468,0.2300,0.1600,9.5800,-0.0625,0.1875,-0.0625,0.0000,0.0000,0.0000,16381.0000,157.0000,-208.0000,-184.0000,0.1185
17131318,101294.757812,20.280001,2.518234,0.2300,0.1800,9.5800,-0.0625,0.0625,-0.0625,0.0000,0.0000,0.0000,16381.0000,157.0000,-208.0000,-184.0000,0.1192
17162600,101293.679688,20.280001,2.608201,0.2500,0.1900,9.5500,0.0000,0.0000,0.0000,0.0000,0.0000,0.0000,16381.0000,157.0000,-208.0000,-184.0000,0.0808
17192141,101285.859375,20.280001,3.259336,0.2400,0.1900,9.5900,-0.0625,0.0625,0.0625,0.0000,0.0000,0.0000,16381.0000,157.0000,-208.0000,-184.0000,0.1024
17251651,101289.773438,20.280001,2.933509,0.2500,0.1700,9.5600,-0.0625,0.0625,0.0625,0.0000,0.0000,0.0000,16381.0000,157.0000,-208.0000,-184.0000,0.1388
17283323,101302.578125,20.280001,1.867145,0.2400,0.1800,9.5700,0.0000,-0.0625,0.0000,0.0000,0.0000,0.0000,16381.0000,157.0000,-208.0000,-184.0000,0.1572
17312775,101299.750000,20.290001,2.102468,0.2400,0.1700,9.5900,-0.1875,0.0625,0.0000,0.0000,0.0000,0.0000,16381.0000,157.0000,-208.0000,-184.0000,0.0031
17342328,101298.671875,20.280001,2.192430,0.2600,0.1700,9.5800,-0.1875,0.0000,0.0000,0.0000,0.0000,0.0000,16381.0000,157.0000,-208.0000,-184.0000,-0.0786
17373644,101295.843750,20.290001,2.427760,0.2300,0.1800,9.5700,0.0000,0.0000,0.1250,0.0000,0.0000,0.0000,16381.0000,157.0000,-208.0000,-184.0000,-0.0362
17403182,101289.773438,20.280001,2.933509,0.2300,0.1800,9.5600,-0.0625,-0.0625,-0.1250,0.0000,0.0000,0.0000,16381.0000,157.0000,-208.0000,-184.0000,-0.0806
17432731,101285.859375,20.280001,3.259336,0.2300,0.1900,9.5900,-0.0625,-0.1250,0.1250,0.0000,0.0000,0.0000,16381.0000,157.0000,-208.0000,-184.0000,0.0061
17462405,101299.750000,20.290001,2.102468,0.2500,0.1600,9.5900,0.0000,0.0000,-0.0625,0.0000,0.0000,0.0000,16381.0000,157.0000,-208.0000,-184.0000,-0.0218
17501845,101289.773438,20.280001,2.933509,0.2400,0.1800,9.5700,-0.0625,-0.0625,-0.0625,0.0000,0.0000,0.0000,16381.0000,157.0000,-208.0000,-184.0000,-0.0153
17532499,101293.679688,20.280001,2.608201,0.2400,0.1800,9.5600,0.0625,0.0000,-0.1875,0.0000,0.0000,0.0000,16381.0000,157.0000,-208.0000,-184.0000,-0.0722
17562583,101298.671875,20.280001,2.192430,0.2300,0.1900,9.5400,0.0625,-0.0625,0.0625,0.0000,0.0000,0.0000,16381.0000,157.0000,-208.0000,-184.0000,-0.1344
17593930,101291.929688,20.290001,2.753572,0.2300,0.1700,9.5500,0.0625,-0.0625,0.0000,0.0000,0.0000,0.0000,16381.0000,157.0000,-208.0000,-184.0000,-0.0646
17623481,101291.929688,20.290001,2.753572,0.2300,0.1800,9.5800,0.1250,-0.1875,0.0625,0.0000,0.0000,0.0000,16381.0000,157.0000,-208.0000,-184.0000,0.0012
17652980,101299.750000,20.290001,2.102468,0.2400,0.1700,9.5700,-0.0625,0.0625,0.0000,0.0000,0.0000,0.0000,16381.0000,157.0000,-208.0000,-184.0000,-0.0024
17684365,101293.679688,20.280001,2.608201,0.2300,0.1600,9.5900,0.0000,0.1875,0.0000,0.0000,0.0000,0.0000,16381.0000,157.0000,-208.0000,-184.0000,0.0174
17713921,101290.851562,20.280001,2.843540,0.2400,0.1700,9.5900,0.0000,-0.1250,-0.1250,0.0000,0.0000,0.0000,16381.0000,157.0000,-208.0000,-184.0000,-0.0058
17743501,101291.929688,20.290001,2.753572,0.2300,0.1800,9.5900,-0.0625,0.0625,-0.0625,0.0000,0.0000,0.0000,16381.0000,157.0000,-208.0000,-184.0000,-0.0705
17773371,101290.851562,20.280001,2.843540,0.2500,0.1800,9.6000,0.0000,-0.1250,0.0625,0.0000,0.0000,0.0000,16381.0000,157.0000,-208.0000,-184.0000,0.0090
17804707,101290.851562,20.280001,2.843540,0.2400,0.1600,9.5800,-0.0625,-0.0625,0.0000,0.0000,0.0000,0.0000,16381.0000,157.0000,-208.0000,-184.0000,-0.0076
17834254,101298.671875,20.280001,2.192430,0.2600,0.1500,9.5800,0.0625,0.0625,0.0625,0.0000,0.0000,0.0000,16381.0000,157.0000,-208.0000,-184.0000,-0.0326
17863785,101302.578125,20.280001,1.867145,0.2200,0.1900,9.5700,0.0000,0.0625,-0.1250,0.0000,0.0000,0.0000,16381.0000,157.0000,-208.0000,-184.0000,-0.0532
17903327,101299.750000,20.290001,2.102468,0.2400,0.1800,9.5900,-0.1250,0.0625,0.0625,0.0000,0.0000,0.0000,16381.0000,157.0000,-208.0000,-184.0000,-0.0999
17933769,101295.843750,20.290001,2.427760,0.2300,0.1900,9.5800,-0.0625,0.2500,0.0625,0.0000,0.0000,0.0000,16381.0000,157.0000,-208.0000,-184.0000,-0.1336
17963839,101288.007812,20.290001,3.080410,0.2400,0.1700,9.5800,-0.1875,0.0625,0.0000,0.0000,0.0000,0.0000,16381.0000,157.0000,-208.0000,-184.0000,-0.0500
17995132,101291.929688,20.290001,2.753572,0.2300,0.1500,9.5800,-0.1250,0.0625,0.0625,0.0000,0.0000,0.0000,16381.0000,157.0000,-208.0000,-184.0000,-0.0348
18024729,101303.656250,20.290001,1.777185,0.2400,0.1900,9.5600,-0.3750,0.0000,0.1250,0.0000,0.0000,0.0000,16381.0000,157.0000,-208.0000,-184.0000,-0.1277
18054287,101293.000000,20.290001,2.664620,0.1700,-0.4900,9.5900,-4.8125,0.0625,-4.1875,0.0000,0.0000,0.0000,16381.0000,146.0000,-207.0000,-190.0000,-0.1342
18084382,101297.992188,20.299999,2.248848,0.2000,0.2900,9.5600,-0.8750,0.0625,-7.4375,0.0000,0.0000,0.0000,16380.0000,141.0000,-207.0000,-236.0000,-0.1781
18115738,101300.828125,20.290001,2.012506,-0.1700,0.7000,9.5000,5.6250,0.5625,2.1875,0.0000,0.0000,0.0000,16380.0000,153.0000,-207.0000,-235.0000,-0.2523
18145284,101294.078125,20.299999,2.574654,0.0000,-0.4100,9.6400,-6.0625,8.0000,2.5625,0.0000,0.0000,0.0000,16381.0000,139.0000,-187.0000,-210.0000,-0.2116
18174905,101284.101562,20.290001,3.405733,-0.1300,-2.1500,11.2100,5.5000,2.8125,-1.6250,0.0000,0.0000,0.0000,16381.0000,133.0000,-158.0000,-211.0000,-0.0784
18206236,101291.929688,20.290001,2.753572,-0.6400,-1.1800,9.5800,25.3750,-7.1875,-1.0000,0.0000,0.0000,0.0000,16380.0000,196.0000,-180.0000,-235.0000,-0.0274
18235763,101293.000000,20.290001,2.664620,1.0900,1.0000,11.2700,45.1875,50.9375,-6.8750,0.0000,0.0000,0.0000,16378.0000,356.0000,-83.0000,-235.0000,-0.0078
18265318,101305.820312,20.299999,1.596759,-1.6800,3.5200,17.8900,48.6250,118.0625,-13.1250,0.0000,0.0000,0.0000,16368.0000,586.0000,333.0000,-280.0000,-0.1164
18304615,101289.093750,20.290001,2.989931,-2.7100,3.6100,20.5500,11.0625,68.5000,-16.1875,0.0000,0.0000,0.0000,16349.0000,645.0000,773.0000,-355.0000,-0.1052
18335056,101299.750000,20.290001,2.102468,-1.4200,1.3500,16.5400,-111.5000,-17.5000,-75.9375,0.0000,0.0000,0.0000,16353.0000,173.0000,784.0000,-609.0000,-0.0625
18365157,101296.921875,20.290001,2.337795,-1.8100,-2.9900,13.2400,-152.5625,-31.9375,-49.1250,0.0000,0.0000,0.0000,16341.0000,-451.0000,703.0000,-840.0000,-0.0815
18396587,101301.906250,20.299999,1.923053,0.1400,-1.2200,12.4400,-18.8750,-71.1250,-6.8750,0.0000,0.0000,0.0000,16338.0000,-671.0000,470.0000,-905.0000,-0.1022
18426161,101294.757812,20.280001,2.518234,0.3000,0.7300,12.0800,66.8125,-81.6875,8.7500,0.0000,0.0000,0.0000,16352.0000,-530.0000,118.0000,-874.0000,-0.0516
18455696,101307.578125,20.290001,1.450388,-1.5600,-0.1300,9.9300,130.5000,-36.3750,6.6875,0.0000,0.0000,0.0000,16362.0000,-103.0000,-118.0000,-844.0000,-0.1640
18485593,101293.000000,20.290001,2.664620,0.0600,-2.1500,8.9100,121.3750,-37.6875,0.0625,0.0000,0.0000,0.0000,16356.0000,386.0000,-297.0000,-823.0000,-0.2381
18516967,101284.101562,20.290001,3.405733,0.6600,0.1000,8.6200,77.6875,-30.2500,-21.3125,0.0000,0.0000,0.0000,16339.0000,709.0000,-439.0000,-876.0000,-0.1729
18546530,101288.007812,20.290001,3.080410,0.4700,0.6500,6.7800,46.2500,38.9375,-30.0625,0.0000,0.0000,0.0000,16320.0000,957.0000,-410.0000,-1011.0000,-0.1313
18576074,101291.929688,20.290001,2.753572,1.2800,1.0300,7.4900,43.3125,38.2500,-36.7500,0.0000,0.0000,0.0000,16302.0000,1155.0000,-198.0000,-1136.0000,-0.0157
18607420,101288.007812,20.290001,3.080410,2.2600,1.6400,8.3300,33.0000,0.8750,-9.7500,0.0000,0.0000,0.0000,16284.0000,1335.0000,-164.0000,-1204.0000,-0.0066
18636973,101296.523438,20.270000,2.371342,2.5800,1.4500,8.2800,-9.2500,9.1875,2.5625,0.0000,0.0000,0.0000,16285.0000,1339.0000,-147.0000,-1196.0000,0.0203
18666495,101293.679688,20.280001,2.608201,2.6700,1.1000,8.5000,-0.5625,24.0625,-14.1250,0.0000,0.0000,0.0000,16285.0000,1324.0000,-60.0000,-1221.0000,0.0473
18705916,101287.609375,20.270000,3.113450,1.7700,0.1900,6.3600,13.1250,31.3750,-22.5000,0.0000,0.0000,0.0000,16270.0000,1399.0000,116.0000,-1319.0000,0.1664
18736395,101278.710938,20.270000,3.854594,0.7200,1.4500,6.9500,-10.6250,23.2500,-14.4375,0.0000,0.0000,0.0000,16268.0000,1356.0000,236.0000,-1378.0000,0.3000
18766486,101277.640625,20.260000,3.943555,-2.1300,0.8100,6.4600,-33.3125,3.6875,-1.3125,0.0000,0.0000,0.0000,16276.0000,1227.0000,291.0000,-1391.0000,0.5493
18827153,101293.281250,20.260000,2.641239,-4.4400,0.1700,8.0800,12.5625,1.4375,-12.9375,0.0000,0.0000,0.0000,16270.0000,1218.0000,255.0000,-1469.0000,0.5470
18856853,101275.476562,20.250000,4.124022,-4.5200,0.2500,8.3000,7.1875,-22.5000,5.0000,0.0000,0.0000,0.0000,16269.0000,1242.0000,204.0000,-1478.0000,0.6188
18886843,101287.218750,20.250000,3.145982,-5.1500,-0.0400,8.4500,3.8125,-41.2500,14.5625,0.0000,0.0000,0.0000,16273.0000,1245.0000,49.0000,-1437.0000,0.6254
18916950,101281.148438,20.240000,3.651765,-4.2200,1.0500,7.1400,7.3750,-30.1250,17.7500,0.0000,0.0000,0.0000,16277.0000,1258.0000,-108.0000,-1379.0000,0.7152
18948295,101291.132812,20.250000,2.820158,-2.4600,0.8400,6.7800,3.0000,9.0000,17.6875,0.0000,0.0000,0.0000,16282.0000,1258.0000,-136.0000,-1313.0000,0.6892
18977826,101282.226562,20.250000,3.561790,-0.8200,0.3800,5.1200,19.7500,36.6250,15.0625,0.0000,0.0000,0.0000,16284.0000,1314.0000,-30.0000,-1244.0000,0.8082
19007442,101281.148438,20.240000,3.651765,1.1300,1.9100,5.3300,14.6250,53.1250,37.5000,0.0000,0.0000,0.0000,16285.0000,1407.0000,166.0000,-1110.0000,0.9126
19038800,101285.062500,20.240000,3.325418,1.8300,1.4700,3.9700,-27.5000,27.0625,65.5625,0.0000,0.0000,0.0000,16301.0000,1379.0000,303.0000,-856.0000,0.9338
19068375,101285.062500,20.240000,3.325418,3.1000,0.6100,4.0400,-26.0625,12.6250,63.1875,0.0000,0.0000,0.0000,16321.0000,1258.0000,355.0000,-579.0000,0.8808
19097899,101273.320312,20.240000,4.303474,3.6000,0.3700,3.2600,-25.0625,-9.3750,46.8750,0.0000,0.0000,0.0000,16335.0000,1162.0000,331.0000,-360.0000,0.9168
19137278,101290.046875,20.250000,2.910635,4.2900,-0.1500,5.2300,-26.3125,-17.1875,35.8750,0.0000,0.0000,0.0000,16350.0000,1020.0000,226.0000,-160.0000,0.9438
19167732,101295.039062,20.250000,2.494853,4.6400,-0.2600,9.3900,-23.4375,-48.7500,19.3750,0.0000,0.0000,0.0000,16358.0000,925.0000,37.0000,-65.0000,0.7809
19198051,101290.046875,20.250000,2.910635,4.1900,1.6900,14.0600,-5.0625,-29.5000,-16.5625,0.0000,0.0000,0.0000,16359.0000,888.0000,-127.0000,-84.0000,0.7573
19229397,101291.132812,20.250000,2.820158,2.9400,3.6100,15.4200,-28.0000,-22.9375,-31.6250,0.0000,0.0000,0.0000,16362.0000,782.0000,-215.0000,-217.0000,0.6742
19258975,101290.046875,20.250000,2.910635,1.6700,2.5200,16.5300,-19.2500,-45.8750,-22.4375,0.0000,0.0000,0.0000,16363.0000,682.0000,-358.0000,-322.0000,0.6832
19288544,101287.218750,20.250000,3.145982,1.4500,2.8700,16.4600,-7.8125,-49.1250,-43.1250,0.0000,0.0000,0.0000,16355.0000,634.0000,-569.0000,-489.0000,0.6416
19318396,101293.281250,20.260000,2.641239,0.0200,2.1500,15.7700,-6.8750,-33.8125,-47.8750,0.0000,0.0000,0.0000,16342.0000,615.0000,-711.0000,-690.0000,0.5406
19349729,101285.062500,20.240000,3.325418,-0.3500,2.0800,15.3000,7.9375,-28.7500,-30.0000,0.0000,0.0000,0.0000,16328.0000,635.0000,-839.0000,-854.0000,0.5406
19379336,101278.312500,20.250000,3.887636,-1.7800,0.7900,12.5400,14.0625,-6.0625,-2.3125,0.0000,0.0000,0.0000,16320.0000,690.0000,-900.0000,-895.0000,0.5968
19408866,101283.296875,20.250000,3.472832,-2.5500,0.2400,8.9600,23.0000,15.3125,-5.0625,0.0000,0.0000,0.0000,16318.0000,771.0000,-868.0000,-899.0000,0.5137
19440188,101291.132812,20.250000,2.820158,-2.3800,0.6300,8.2100,46.0625,30.6250,-15.5000,0.0000,0.0000,0.0000,16312.0000,935.0000,-766.0000,-937.0000,0.5047
19469705,101284.382812,20.260000,3.382350,-1.5800,1.8400,7.7000,39.0625,21.6250,-9.0625,0.0000,0.0000,0.0000,16303.0000,1123.0000,-661.0000,-977.0000,0.5934
19499256,101285.460938,20.260000,3.292377,-2.0000,1.6600,5.3200,11.0000,-25.4375,6.4375,0.0000,0.0000,0.0000,16296.0000,1210.0000,-704.0000,-964.0000,0.6316
19538510,101292.210938,20.260000,2.730190,-1.2600,1.8100,4.8100,6.5625,-54.5000,1.0000,0.0000,0.0000,0.0000,16280.0000,1232.0000,-970.0000,-968.0000,0.6226
19569133,101277.640625,20.260000,3.943555,-0.4000,1.5600,3.5000,19.3125,9.5625,3.2500,0.0000,0.0000,0.0000,16272.0000,1310.0000,-997.0000,-970.0000,0.7259
19599208,101285.460938,20.260000,3.292377,0.4000,0.2500,2.9100,19.6250,23.4375,26.0000,0.0000,0.0000,0.0000,16275.0000,1392.0000,-920.0000,-886.0000,0.7405
19630509,101293.281250,20.260000,2.641239,1.1600,-0.6100,3.7200,2.2500,35.0625,48.2500,0.0000,0.0000,0.0000,16286.0000,1425.0000,-824.0000,-701.0000,0.7405
19660124,101295.437500,20.270000,2.461815,2.4800,0.5400,5.1000,-20.0625,64.5625,56.7500,0.0000,0.0000,0.0000,16309.0000,1371.0000,-605.0000,-454.0000,0.6542
19689681,101277.640625,20.260000,3.943555,3.2100,0.1700,6.3700,-12.3125,82.2500,43.6250,0.0000,0.0000,0.0000,16329.0000,1290.0000,-314.0000,-227.0000,0.6598
19719610,101277.640625,20.260000,3.943555,4.3200,0.3100,12.2300,0.0000,92.4375,21.4375,0.0000,0.0000,0.0000,16333.0000,1288.0000,70.0000,-79.0000,0.7068
19750984,101289.367188,20.260000,2.967057,3.8300,-0.1600,14.3700,2.7500,42.7500,-3.5625,0.0000,0.0000,0.0000,16329.0000,1301.0000,314.0000,-34.0000,0.7215
19780549,101287.609375,20.270000,3.113450,3.3800,2.8200,15.7800,-31.2500,10.6875,-22.2500,0.0000,0.0000,0.0000,16333.0000,1225.0000,415.0000,-104.0000,0.6946
19810110,101285.460938,20.260000,3.292377,3.2300,3.3900,16.1700,-34.2500,-46.6875,-9.0000,0.0000,0.0000,0.0000,16345.0000,1069.0000,304.0000,-167.0000,0.6946
19841420,101287.609375,20.270000,3.113450,1.8300,3.9800,16.5900,-13.0000,-89.8750,5.6875,0.0000,0.0000,0.0000,16354.0000,975.0000,-8.0000,-184.0000,0.7330
19870984,101290.453125,20.270000,2.876579,1.5000,1.8300,14.8000,0.1250,-121.8125,20.3125,0.0000,0.0000,0.0000,16348.0000,967.0000,-485.0000,-144.0000,0.6263
19900511,101295.437500,20.270000,2.461815,-0.1100,1.2900,11.7900,-6.2500,-117.1250,20.1875,0.0000,0.0000,0.0000,16327.0000,932.0000,-999.0000,-89.0000,0.5432
19939857,101285.460938,20.260000,3.292377,-0.3800,1.8700,12.6300,-1.7500,-57.9375,1.6875,0.0000,0.0000,0.0000,16300.0000,915.0000,-1380.0000,-83.0000,0.6083
19970411,101283.703125,20.270000,3.438774,-1.6400,1.3300,10.6000,27.3125,-3.6875,0.3125,0.0000,0.0000,0.0000,16287.0000,1032.0000,-1442.0000,-91.0000,0.7060
20000485,101282.617188,20.270000,3.529257,-1.7900,0.1800,8.4200,53.0625,0.7500,-0.7500,0.0000,0.0000,0.0000,16275.0000,1236.0000,-1424.0000,-64.0000,0.6646
20030708,101277.640625,20.260000,3.943555,-1.8500,1.6200,7.6200,27.1875,-11.4375,-1.5000,0.0000,0.0000,0.0000,16262.0000,1349.0000,-1468.0000,-69.0000,0.6646
20062069,101285.460938,20.260000,3.292377,-1.8200,1.0300,6.8600,6.3750,-1.9375,-4.6250,0.0000,0.0000,0.0000,16259.0000,1372.0000,-1483.0000,-75.0000,0.6971
20091608,101285.460938,20.260000,3.292377,-1.8800,0.5600,5.4200,15.0000,-2.3125,-1.4375,0.0000,0.0000,0.0000,16253.0000,1426.0000,-1493.0000,-87.0000,0.7150
20121192,101281.546875,20.260000,3.618215,-0.9700,1.2300,5.2700,24.4375,37.4375,17.3125,0.0000,0.0000,0.0000,16253.0000,1523.0000,-1399.0000,-20.0000,0.7476
20152548,101286.539062,20.270000,3.202404,-0.8100,-0.6400,6.0400,34.6250,67.5000,17.7500,0.0000,0.0000,0.0000,16260.0000,1639.0000,-1163.0000,90.0000,0.7565
20182068,101285.460938,20.260000,3.292377,0.3500,-0.5300,5.8100,36.9375,81.9375,12.1875,0.0000,0.0000,0.0000,16263.0000,1785.0000,-849.0000,195.0000,0.7981
20211600,101277.640625,20.260000,3.943555,1.1500,-0.0300,6.2000,8.1250,89.5000,5.7500,0.0000,0.0000,0.0000,16270.0000,1851.0000,-485.0000,264.0000,0.9463
20242946,101289.367188,20.260000,2.967057,2.4100,1.0200,6.6000,18.6875,53.0625,2.3750,0.0000,0.0000,0.0000,16270.0000,1896.0000,-205.0000,315.0000,0.9137
20272494,101289.367188,20.260000,2.967057,3.0900,1.7600,7.3000,16.0625,22.7500,5.5625,0.0000,0.0000,0.0000,16262.0000,1963.0000,-79.0000,349.0000,0.8666
20302040,101280.468750,20.260000,3.708191,2.9100,0.7000,9.4200,4.6250,12.1875,2.5625,0.0000,0.0000,0.0000,16255.0000,2014.0000,-15.0000,372.0000,0.8844
20351098,101279.390625,20.250000,3.798167,3.0300,3.8400,12.7100,-32.0625,-7.3750,-7.7500,0.0000,0.0000,0.0000,16276.0000,1843.0000,-37.0000,344.0000,0.8699
20402169,101285.460938,20.260000,3.292377,1.8500,3.0400,14.8700,-16.1250,-31.1250,0.3750,0.0000,0.0000,0.0000,16290.0000,1706.0000,-242.0000,332.0000,0.8699
20431933,101284.382812,20.260000,3.382350,1.4000,3.5700,13.1500,-15.1250,-9.5000,-8.7500,0.0000,0.0000,0.0000,16296.0000,1639.0000,-316.0000,294.0000,0.8789
20462096,101292.210938,20.260000,2.730190,0.9100,4.0400,14.8700,-29.0000,13.5625,-10.2500,0.0000,0.0000,0.0000,16309.0000,1522.0000,-282.0000,250.0000,0.7901
20493498,101283.296875,20.250000,3.472832,0.4800,2.8800,14.4500,-27.1875,-13.3750,3.1250,0.0000,0.0000,0.0000,16320.0000,1393.0000,-289.0000,239.0000,0.8171
20523025,101282.226562,20.250000,3.561790,0.2200,2.3700,13.0700,-10.3125,-43.3125,0.8750,0.0000,0.0000,0.0000,16322.0000,1329.0000,-437.0000,237.0000,0.8441
20552621,101285.460938,20.260000,3.292377,-0.2500,1.3200,11.7300,2.0000,-53.4375,-4.5000,0.0000,0.0000,0.0000,16316.0000,1324.0000,-646.0000,209.0000,0.7790
20584019,101289.367188,20.260000,2.967057,-0.4300,1.5900,10.0700,6.0625,-47.6875,-10.0625,0.0000,0.0000,0.0000,16305.0000,1355.0000,-855.0000,157.0000,0.7790
20613570,101281.546875,20.260000,3.618215,-0.4600,0.6600,9.5000,-14.3750,-47.5625,2.3125,0.0000,0.0000,0.0000,16296.0000,1331.0000,-1046.0000,128.0000,0.8441
20643153,101285.460938,20.260000,3.292377,-0.9900,-0.1400,7.0400,-32.8125,-51.0000,9.5625,0.0000,0.0000,0.0000,16289.0000,1216.0000,-1263.0000,135.0000,0.8025
20674477,101285.460938,20.260000,3.292377,-1.2900,-0.2800,5.7100,-26.8750,-18.3750,7.8125,0.0000,0.0000,0.0000,16288.0000,1083.0000,-1399.0000,149.0000,0.7519
20703999,101290.453125,20.270000,2.876579,-0.3600,-0.5600,6.7400,-0.9375,13.6250,-4.7500,0.0000,0.0000,0.0000,16292.0000,1044.0000,-1379.0000,148.0000,0.7103
20733600,101289.367188,20.260000,2.967057,0.4600,-1.0200,5.5000,18.6250,44.1250,-10.5625,0.0000,0.0000,0.0000,16299.0000,1107.0000,-1237.0000,123.0000,0.6688
20772726,101285.460938,20.260000,3.292377,0.6400,-2.0300,6.3700,26.6875,58.9375,-19.5000,0.0000,0.0000,0.0000,16311.0000,1241.0000,-916.0000,57.0000,0.7250
20803056,101285.460938,20.260000,3.292377,1.6700,-0.6700,6.3200,27.5000,58.5625,-14.5625,0.0000,0.0000,0.0000,16314.0000,1349.0000,-680.0000,0.0000,0.7070
20833114,101271.968750,20.270000,4.416333,2.0300,-0.7700,6.6300,2.2500,59.1875,-2.3125,0.0000,0.0000,0.0000,16322.0000,1355.0000,-428.0000,-1.0000,0.7924
20863389,101287.609375,20.270000,3.113450,2.9300,0.7400,9.4900,-24.8750,37.6250,8.3750,0.0000,0.0000,0.0000,16334.0000,1253.0000,-235.0000,30.0000,0.7745
20894717,101286.539062,20.270000,3.202404,2.9600,1.2000,12.0700,-30.8750,-3.0000,8.4375,0.0000,0.0000,0.0000,16345.0000,1105.0000,-193.0000,72.0000,0.7981
20924271,101287.609375,20.270000,3.113450,3.1700,2.1900,12.6700,-2.8750,-32.4375,7.1875,0.0000,0.0000,0.0000,16347.0000,1061.0000,-297.0000,92.0000,0.7476
20953809,101281.546875,20.260000,3.618215,2.2000,3.3900,12.7100,-8.6250,-48.1875,14.2500,0.0000,0.0000,0.0000,16343.0000,1044.0000,-480.0000,126.0000,0.7802
20985159,101286.539062,20.270000,3.202404,1.4000,3.5300,12.4400,-17.1250,-49.3750,24.0625,0.0000,0.0000,0.0000,16339.0000,981.0000,-696.0000,199.0000,0.7712
21014736,101297.203125,20.260000,2.314415,0.7200,3.6300,12.3600,-14.0625,-32.8750,19.4375,0.0000,0.0000,0.0000,16334.0000,908.0000,-865.0000,275.0000,0.7150
21044261,101277.640625,20.260000,3.943555,0.2100,3.9600,11.6600,-10.3125,-9.3125,17.8125,0.0000,0.0000,0.0000,16330.0000,863.0000,-941.0000,346.0000,0.8126
21075654,101286.539062,20.270000,3.202404,-0.1100,3.0200,11.1500,-4.6875,-0.1250,15.2500,0.0000,0.0000,0.0000,16330.0000,825.0000,-956.0000,410.0000,0.8036
21105185,101286.539062,20.270000,3.202404,-0.4500,1.9100,11.4500,12.4375,-1.5000,9.7500,0.0000,0.0000,0.0000,16328.0000,848.0000,-955.0000,462.0000,0.7946
21134731,101269.812500,20.260000,4.595791,-0.5900,1.1100,10.0800,-0.3750,-16.7500,16.0625,0.0000,0.0000,0.0000,16322.0000,874.0000,-1003.0000,512.0000,0.8126
21164277,101277.640625,20.260000,3.943555,-0.8600,0.8200,8.6300,-14.7500,-30.3750,26.5625,0.0000,0.0000,0.0000,16314.0000,821.0000,-1120.0000,600.0000,0.8956
21203955,101269.812500,20.260000,4.595791,-0.8400,0.4100,8.7100,6.1875,-17.3125,26.2500,0.0000,0.0000,0.0000,16300.0000,819.0000,-1239.0000,740.0000,1.0349
21234416,101277.640625,20.260000,3.943555,-0.7200,0.3300,7.8900,6.2500,8.8125,20.7500,0.0000,0.0000,0.0000,16295.0000,839.0000,-1229.0000,836.0000,1.1179
21264458,101291.531250,20.270000,2.787119,-0.6500,0.8600,6.5700,-1.1875,31.5000,13.1875,0.0000,0.0000,0.0000,16298.0000,824.0000,-1139.0000,905.0000,1.0348
21295835,101278.710938,20.270000,3.854594,-0.2000,-0.0900,7.8600,4.4375,48.1250,5.0625,0.0000,0.0000,0.0000,16309.0000,803.0000,-958.0000,946.0000,1.1000
21325467,101278.710938,20.270000,3.854594,0.4100,-0.2000,7.8600,23.2500,52.6875,-8.9375,0.0000,0.0000,0.0000,16317.0000,869.0000,-737.0000,944.0000,1.2541
21355025,101271.968750,20.270000,4.416333,0.6700,0.0900,6.9500,30.9375,56.0000,-13.2500,0.0000,0.0000,0.0000,16322.0000,972.0000,-505.0000,906.0000,1.3013
21386335,101282.617188,20.270000,3.529257,0.8200,-0.0400,7.0700,26.1875,63.1875,-3.2500,0.0000,0.0000,0.0000,16322.0000,1081.0000,-241.0000,897.0000,1.3340
21415958,101285.460938,20.260000,3.292377,1.4700,1.3100,8.0400,19.3125,52.2500,4.8125,0.0000,0.0000,0.0000,16318.0000,1154.0000,0.0000,917.0000,1.3430
21445514,101279.789062,20.270000,3.764617,1.1000,1.0400,8.5200,22.6250,28.1875,24.3750,0.0000,0.0000,0.0000,16306.0000,1231.0000,153.0000,1006.0000,1.2599
21476839,101289.367188,20.260000,2.967057,1.1900,2.2500,8.6100,2.8750,8.6875,23.5625,0.0000,0.0000,0.0000,16295.0000,1274.0000,204.0000,1109.0000,1.1623
21506404,101285.460938,20.260000,3.292377,0.8500,3.5600,10.7600,-20.7500,-11.2500,28.1250,0.0000,0.0000,0.0000,16293.0000,1210.0000,180.0000,1219.0000,1.0319
21536057,101289.367188,20.260000,2.967057,1.1400,3.8100,13.2200,-8.2500,-45.5000,22.0625,0.0000,0.0000,0.0000,16290.0000,1166.0000,29.0000,1310.0000,0.9343
21565588,101278.312500,20.250000,3.887636,1.3400,3.0100,13.1200,2.0625,-58.3125,15.1875,0.0000,0.0000,0.0000,16282.0000,1181.0000,-217.0000,1369.0000,1.0443
21605057,101288.289062,20.260000,3.057027,1.3400,3.0100,11.6700,-2.0625,-53.1250,10.8125,0.0000,0.0000,0.0000,16271.0000,1199.0000,-517.0000,1412.0000,0.9646
21635588,101280.468750,20.260000,3.708191,0.8700,2.1700,11.8100,-2.2500,-24.5000,11.6875,0.0000,0.0000,0.0000,16262.0000,1205.0000,-655.0000,1451.0000,0.9499
21665759,101295.437500,20.270000,2.461815,0.6500,1.7400,11.2200,16.5000,-15.1875,2.5625,0.0000,0.0000,0.0000,16252.0000,1278.0000,-722.0000,1472.0000,0.7545
21697120,101282.617188,20.270000,3.529257,0.0700,1.6000,10.2900,14.1250,-12.5000,8.0625,0.0000,0.0000,0.0000,16240.0000,1369.0000,-770.0000,1494.0000,0.7545
21726659,101285.460938,20.260000,3.292377,-0.3000,1.8500,9.0700,7.5000,-9.7500,7.1250,0.0000,0.0000,0.0000,16232.0000,1403.0000,-814.0000,1525.0000,0.7545
21756217,101283.296875,20.250000,3.472832,-0.3900,1.9000,8.3200,10.1250,-3.0625,7.1250,0.0000,0.0000,0.0000,16224.0000,1446.0000,-838.0000,1554.0000,0.7253
21787530,101288.289062,20.260000,3.057027,-0.4800,1.5000,8.4300,12.8750,9.0000,2.1875,0.0000,0.0000,0.0000,16219.0000,1490.0000,-813.0000,1576.0000,0.7343
21817068,101289.367188,20.260000,2.967057,-0.1100,1.2100,7.9700,11.7500,12.2500,-1.8125,0.0000,0.0000,0.0000,16218.0000,1534.0000,-759.0000,1579.0000,0.7018
21846609,101279.789062,20.270000,3.764617,0.3100,0.9800,7.5700,14.0625,15.6875,-3.0000,0.0000,0.0000,0.0000,16217.0000,1580.0000,-696.0000,1572.0000,0.7815
21876449,101285.460938,20.260000,3.292377,0.4000,0.9800,7.1700,15.7500,25.3750,-1.0625,0.0000,0.0000,0.0000,16215.0000,1635.0000,-596.0000,1579.0000,0.7220
21907777,101285.460938,20.260000,3.292377,0.8400,0.6800,6.9300,4.3750,37.4375,-5.5625,0.0000,0.0000,0.0000,16217.0000,1656.0000,-453.0000,1580.0000,0.7455
21937319,101285.460938,20.260000,3.292377,1.1800,0.8600,6.8700,12.8750,42.7500,-10.9375,0.0000,0.0000,0.0000,16221.0000,1679.0000,-274.0000,1561.0000,0.7039
21997265,101282.617188,20.270000,3.529257,1.4200,1.7500,6.4800,-6.3750,27.5625,-5.9375,0.0000,0.0000,0.0000,16225.0000,1703.0000,51.0000,1514.0000,0.8107
22036505,101287.609375,20.270000,3.113450,1.5400,1.7700,7.1000,-13.4375,6.4375,-5.8125,0.0000,0.0000,0.0000,16235.0000,1622.0000,102.0000,1489.0000,0.7691
22066919,101294.359375,20.270000,2.551273,1.5500,1.7100,7.4700,-21.6875,-11.3125,12.4375,0.0000,0.0000,0.0000,16242.0000,1533.0000,59.0000,1511.0000,0.6950
22097066,101279.789062,20.270000,3.764617,1.4100,2.4000,9.1300,-35.0625,-15.8125,24.8125,0.0000,0.0000,0.0000,16246.0000,1399.0000,-23.0000,1596.0000,0.7242
22128395,101279.789062,20.270000,3.764617,1.3500,1.8900,11.1000,-23.3750,-8.2500,24.3125,0.0000,0.0000,0.0000,16245.0000,1291.0000,-94.0000,1696.0000,0.7949
22157985,101283.703125,20.270000,3.438774,1.0000,1.6800,13.3400,-21.6875,1.9375,24.6250,0.0000,0.0000,0.0000,16241.0000,1202.0000,-108.0000,1795.0000,0.8421
22187497,101287.609375,20.270000,3.113450,0.9800,2.1800,13.8200,-11.3750,-14.1250,12.5625,0.0000,0.0000,0.0000,16237.0000,1139.0000,-157.0000,1866.0000,0.7770
22218748,101286.539062,20.270000,3.202404,0.6700,1.8500,13.6400,6.8750,-16.8750,1.0000,0.0000,0.0000,0.0000,16233.0000,1158.0000,-225.0000,1882.0000,0.7680
22248304,101295.437500,20.270000,2.461815,0.3400,2.0200,12.5500,0.4375,-24.4375,-0.4375,0.0000,0.0000,0.0000,16231.0000,1179.0000,-314.0000,1873.0000,0.6849
22277839,101279.789062,20.270000,3.764617,0.4000,2.2800,11.9300,12.8750,-20.0000,-3.9375,0.0000,0.0000,0.0000,16227.0000,1225.0000,-402.0000,1856.0000,0.7322
22307674,101294.359375,20.270000,2.551273,0.0000,1.6500,11.4700,10.3125,-20.4375,-0.3750,0.0000,0.0000,0.0000,16223.0000,1278.0000,-474.0000,1845.0000,0.6344
22339049,101282.617188,20.270000,3.529257,-0.0100,1.6800,10.5700,4.7500,-24.2500,-0.0625,0.0000,0.0000,0.0000,16217.0000,1317.0000,-570.0000,1838.0000,0.6759
22368650,101275.882812,20.270000,4.089962,-0.2800,1.6800,9.6400,4.3750,-12.7500,3.1875,0.0000,0.0000,0.0000,16212.0000,1343.0000,-637.0000,1841.0000,0.8298
22398201,101287.609375,20.270000,3.113450,-0.4400,1.0900,8.6500,8.0000,-2.8750,4.4375,0.0000,0.0000,0.0000,16207.0000,1370.0000,-662.0000,1858.0000,0.7647
22437573,101285.460938,20.260000,3.292377,-0.6800,1.0900,8.7800,15.3750,10.6875,0.5000,0.0000,0.0000,0.0000,16201.0000,1442.0000,-609.0000,1871.0000,0.7175
22467999,101288.687500,20.270000,3.023479,-0.5900,1.3500,8.0400,14.7500,15.8750,-8.1250,0.0000,0.0000,0.0000,16201.0000,1495.0000,-538.0000,1852.0000,0.6759
22498304,101287.609375,20.270000,3.113450,-0.1100,1.2900,6.6900,12.3750,16.9375,-11.5000,0.0000,0.0000,0.0000,16203.0000,1541.0000,-463.0000,1819.0000,0.6759
22529557,101288.687500,20.270000,3.023479,0.0500,1.1600,7.3800,16.1875,21.7500,-12.6875,0.0000,0.0000,0.0000,16205.0000,1592.0000,-371.0000,1780.0000,0.6580
22559104,101284.781250,20.270000,3.348800,0.3400,0.8400,7.1400,15.7500,27.6250,-14.1875,0.0000,0.0000,0.0000,16205.0000,1659.0000,-249.0000,1735.0000,0.7467
22588601,101270.890625,20.270000,4.505807,0.7200,0.9000,7.2500,-7.0625,25.8125,-13.1250,0.0000,0.0000,0.0000,16212.0000,1651.0000,-132.0000,1688.0000,0.8209
22619974,101286.539062,20.270000,3.202404,1.2300,1.6300,7.4400,-15.3750,16.1875,-4.3125,0.0000,0.0000,0.0000,16222.0000,1584.0000,-54.0000,1665.0000,0.8860
22649523,101277.640625,20.260000,3.943555,1.1400,2.3100,7.5100,-5.9375,6.5000,1.5625,0.0000,0.0000,0.0000,16226.0000,1538.0000,-21.0000,1671.0000,0.9274
22679058,101279.789062,20.270000,3.764617,1.2200,2.2100,7.7000,-4.3750,3.6875,1.6250,0.0000,0.0000,0.0000,16226.0000,1528.0000,-4.0000,1680.0000,0.8949
22708901,101281.546875,20.260000,3.618215,1.5600,2.1000,8.6800,-14.7500,4.9375,3.1875,0.0000,0.0000,0.0000,16230.0000,1466.0000,5.0000,1691.0000,0.9453
22740281,101286.539062,20.270000,3.202404,1.6100,2.2900,10.0800,-26.5000,-0.3750,7.6250,0.0000,0.0000,0.0000,16237.0000,1357.0000,5.0000,1717.0000,0.9364
22769847,101286.539062,20.270000,3.202404,1.4400,1.8500,10.6100,-16.9375,-9.0625,12.1875,0.0000,0.0000,0.0000,16239.0000,1280.0000,-42.0000,1760.0000,0.9542
22799354,101279.789062,20.270000,3.764617,1.4100,1.6800,11.8100,-17.6875,2.8750,11.1250,0.0000,0.0000,0.0000,16239.0000,1206.0000,-57.0000,1808.0000,1.0194
22838725,101287.609375,20.270000,3.113450,1.2000,1.8600,13.6600,-15.2500,-5.3750,5.2500,0.0000,0.0000,0.0000,16241.0000,1123.0000,-90.0000,1843.0000,1.0284
22869183,101288.687500,20.270000,3.023479,0.7300,1.6900,11.3800,-13.2500,-24.5625,0.9375,0.0000,0.0000,0.0000,16243.0000,1079.0000,-192.0000,1842.0000,0.9958
22899454,101283.703125,20.270000,3.438774,0.2700,1.7800,10.9900,-2.6875,-14.2500,-1.8125,0.0000,0.0000,0.0000,16243.0000,1074.0000,-267.0000,1833.0000,0.8891
22930777,101285.859375,20.280001,3.259336,0.2300,2.0700,11.5500,1.3750,-9.0000,-0.0625,0.0000,0.0000,0.0000,16243.0000,1086.0000,-309.0000,1825.0000,0.8948
22960316,101287.609375,20.270000,3.113450,-0.1900,1.8600,11.4700,-0.4375,-4.0000,7.7500,0.0000,0.0000,0.0000,16240.0000,1086.0000,-335.0000,1846.0000,0.8118
22989852,101283.703125,20.270000,3.438774,-0.7000,1.3100,11.2700,9.3750,4.1250,0.2500,0.0000,0.0000,0.0000,16236.0000,1112.0000,-327.0000,1863.0000,0.7792
23019757,101263.062500,20.270000,5.158078,-0.6600,1.6700,10.5300,11.7500,4.3750,-5.5625,0.0000,0.0000,0.0000,16236.0000,1156.0000,-301.0000,1845.0000,0.9332
23051088,101278.710938,20.270000,3.854594,-1.0200,1.2000,9.6600,12.5625,5.5625,-9.6250,0.0000,0.0000,0.0000,16237.0000,1198.0000,-271.0000,1816.0000,0.9984
23080614,101288.687500,20.270000,3.023479,-1.0400,1.3200,9.1000,14.6250,2.3750,-8.9375,0.0000,0.0000,0.0000,16237.0000,1259.0000,-245.0000,1776.0000,0.9805
23110188,101291.531250,20.270000,2.787119,-1.1900,1.5300,8.0800,20.7500,-1.4375,-4.8125,0.0000,0.0000,0.0000,16234.0000,1330.0000,-238.0000,1753.0000,0.8828
23141538,101287.609375,20.270000,3.113450,-1.3300,1.4000,7.7600,14.2500,4.3750,-6.2500,0.0000,0.0000,0.0000,16230.0000,1408.0000,-218.0000,1734.0000,0.8828
23171039,101283.703125,20.270000,3.438774,-1.0100,1.5000,7.1400,7.8125,11.8125,-9.6875,0.0000,0.0000,0.0000,16231.0000,1442.0000,-175.0000,1698.0000,0.9243
23200655,101287.609375,20.270000,3.113450,-0.8200,1.5800,6.9000,7.1875,21.2500,-6.6875,0.0000,0.0000,0.0000,16233.0000,1459.0000,-93.0000,1672.0000,0.8918
23239892,101280.867188,20.270000,3.675149,-0.4300,1.0900,7.1400,13.3125,16.6250,-5.2500,0.0000,0.0000,0.0000,16230.0000,1512.0000,13.0000,1652.0000,0.9334
23270384,101287.609375,20.270000,3.113450,0.3100,1.1400,7.2000,3.1250,6.1250,-3.3125,0.0000,0.0000,0.0000,16231.0000,1522.0000,56.0000,1638.0000,0.9334
23300652,101278.710938,20.270000,3.854594,0.4100,1.7500,6.9700,-6.3125,-2.8125,-3.5625,0.0000,0.0000,0.0000,16234.0000,1496.0000,54.0000,1626.0000,0.9749
23330717,101284.781250,20.270000,3.348800,0.6400,1.9100,6.4200,-7.0625,-8.6250,-2.5000,0.0000,0.0000,0.0000,16238.0000,1470.0000,22.0000,1611.0000,0.7940
23362009,101273.039062,20.270000,4.326859,0.8400,1.5200,6.9900,-5.0625,-0.1250,-0.8750,0.0000,0.0000,0.0000,16241.0000,1447.0000,5.0000,1607.0000,0.8412
23391539,101280.867188,20.270000,3.675149,1.8000,1.7100,8.6600,-0.9375,11.0000,0.8750,0.0000,0.0000,0.0000,16241.0000,1438.0000,33.0000,1608.0000,0.9064
23421125,101284.781250,20.270000,3.348800,1.7600,1.0400,8.8600,-11.6250,22.5625,11.7500,0.0000,0.0000,0.0000,16240.0000,1404.0000,107.0000,1650.0000,0.9626
23452443,101284.781250,20.270000,3.348800,1.7100,0.9200,9.2800,-28.8125,17.0625,17.5000,0.0000,0.0000,0.0000,16241.0000,1295.0000,173.0000,1721.0000,0.9861
23481963,101271.968750,20.270000,4.416333,1.5300,1.3900,10.7500,-20.5625,9.8125,6.5000,0.0000,0.0000,0.0000,16243.0000,1188.0000,209.0000,1771.0000,1.0839
23511602,101289.773438,20.280001,2.933509,1.5900,1.6900,11.5400,-9.2500,10.6250,-4.0000,0.0000,0.0000,0.0000,16246.0000,1139.0000,247.0000,1773.0000,1.0659
23574043,101279.789062,20.270000,3.764617,1.0500,1.5200,12.7100,-2.6250,-36.0625,-2.0625,0.0000,0.0000,0.0000,16256.0000,1049.0000,118.0000,1746.0000,1.0748
23603484,101271.968750,20.270000,4.416333,0.8600,1.7400,12.3300,-11.0625,-49.3125,9.8125,0.0000,0.0000,0.0000,16256.0000,1053.0000,-76.0000,1754.0000,1.2051
23632876,101287.609375,20.270000,3.113450,0.2000,1.8500,11.4200,-9.6875,-49.4375,14.4375,0.0000,0.0000,0.0000,16251.0000,1019.0000,-293.0000,1797.0000,1.1310
23671444,101288.007812,20.290001,3.080410,0.0000,2.4600,12.6600,-8.3750,-38.5625,16.2500,0.0000,0.0000,0.0000,16237.0000,1003.0000,-524.0000,1873.0000,1.1042
23701889,101287.609375,20.270000,3.113450,-0.1100,1.9200,12.6700,15.0000,-15.6250,3.5625,0.0000,0.0000,0.0000,16226.0000,1070.0000,-608.0000,1905.0000,0.9828
23731996,101280.867188,20.270000,3.675149,-0.3700,1.1300,11.4900,23.3750,-9.2500,-6.5625,0.0000,0.0000,0.0000,16220.0000,1169.0000,-639.0000,1891.0000,0.9828
23762070,101274.117188,20.280001,4.237387,-0.6000,1.1000,10.7200,18.5625,-11.3750,-10.7500,0.0000,0.0000,0.0000,16217.0000,1255.0000,-668.0000,1852.0000,1.0717
23793440,101281.953125,20.280001,3.584665,-0.3000,1.4300,10.0700,34.6875,-9.7500,-10.3125,0.0000,0.0000,0.0000,16210.0000,1390.0000,-701.0000,1805.0000,1.0953
23822992,101281.953125,20.280001,3.584665,-0.5300,1.4700,9.3200,31.4375,2.8750,-7.0000,0.0000,0.0000,0.0000,16201.0000,1527.0000,-685.0000,1779.0000,1.0121
23852498,101281.953125,20.280001,3.584665,-0.4700,1.8000,7.5900,26.8125,9.9375,-2.5625,0.0000,0.0000,0.0000,16193.0000,1641.0000,-640.0000,1769.0000,1.0772
23883822,101287.609375,20.270000,3.113450,-0.6000,1.7200,7.1200,24.0000,17.2500,3.8750,0.0000,0.0000,0.0000,16183.0000,1737.0000,-565.0000,1788.0000,1.0121
23913407,101289.773438,20.280001,2.933509,-0.5400,1.5200,7.4100,29.3750,24.9375,2.1875,0.0000,0.0000,0.0000,16172.0000,1839.0000,-465.0000,1818.0000,0.8638
23942906,101283.023438,20.280001,3.495198,-0.1100,1.6100,6.7000,14.0000,32.8125,2.3750,0.0000,0.0000,0.0000,16165.0000,1908.0000,-333.0000,1838.0000,0.9020
23974271,101287.609375,20.270000,3.113450,0.2400,1.5200,6.3400,4.8750,34.5625,1.0625,0.0000,0.0000,0.0000,16163.0000,1917.0000,-188.0000,1862.0000,0.9053
24003818,101279.789062,20.270000,3.764617,0.6700,1.5300,6.8500,2.9375,29.0625,0.0625,0.0000,0.0000,0.0000,16162.0000,1921.0000,-58.0000,1878.0000,0.9704
24033371,101274.117188,20.280001,4.237387,0.8700,1.7900,6.8900,-6.5625,24.5000,2.8125,0.0000,0.0000,0.0000,16163.0000,1895.0000,46.0000,1898.0000,1.0266
24063067,101286.937500,20.280001,3.169364,1.0800,2.2500,6.6800,-17.0625,16.3750,7.1250,0.0000,0.0000,0.0000,16166.0000,1829.0000,118.0000,1929.0000,0.9198
24101997,101293.679688,20.280001,2.608201,1.3800,1.9300,8.1000,-26.3750,3.1250,10.8750,0.0000,0.0000,0.0000,16174.0000,1690.0000,126.0000,1990.0000,0.8222
24133000,101273.039062,20.270000,4.326859,1.6300,1.3300,9.2100,-25.8750,-3.9375,16.5625,0.0000,0.0000,0.0000,16177.0000,1584.0000,91.0000,2051.0000,0.8964
24163278,101273.039062,20.270000,4.326859,1.5000,1.4300,10.1600,-25.3750,-1.8750,18.1250,0.0000,0.0000,0.0000,16178.0000,1483.0000,63.0000,2125.0000,0.9706
24194626,101289.773438,20.280001,2.933509,1.3300,1.8500,11.6300,-19.6875,6.3125,7.3750,0.0000,0.0000,0.0000,16179.0000,1393.0000,60.0000,2175.0000,0.9526
24224176,101288.007812,20.290001,3.080410,1.0900,2.0900,12.6300,-10.3125,2.0625,-0.7500,0.0000,0.0000,0.0000,16183.0000,1333.0000,78.0000,2181.0000,0.9673
24253735,101280.867188,20.270000,3.675149,0.7900,2.3700,12.4400,-12.4375,-14.6875,-3.1875,0.0000,0.0000,0.0000,16188.0000,1294.0000,33.0000,2171.0000,0.9853
24285053,101281.953125,20.280001,3.584665,0.7000,2.9100,12.0600,-6.5625,-29.3750,-2.1875,0.0000,0.0000,0.0000,16193.0000,1270.0000,-72.0000,2147.0000,1.0324
24314655,101292.601562,20.270000,2.697659,0.3400,2.6200,11.8700,-5.2500,-31.7500,5.7500,0.0000,0.0000,0.0000,16191.0000,1265.0000,-209.0000,2152.0000,0.9257
24344180,101289.773438,20.280001,2.933509,0.2600,2.6500,11.8900,-0.2500,-24.1250,7.3750,0.0000,0.0000,0.0000,16186.0000,1270.0000,-323.0000,2172.0000,0.7953
24375486,101284.101562,20.290001,3.405733,-0.3900,1.7700,11.3900,12.6875,-14.5000,4.8125,0.0000,0.0000,0.0000,16179.0000,1308.0000,-393.0000,2191.0000,0.8190
24405007,101287.609375,20.270000,3.113450,-0.6300,1.4000,10.1100,12.2500,-8.6875,0.6250,0.0000,0.0000,0.0000,16173.0000,1371.0000,-428.0000,2196.0000,0.8695
24434635,101273.039062,20.270000,4.326859,-0.6400,1.0800,9.5000,10.6875,-0.3750,1.4375,0.0000,0.0000,0.0000,16168.0000,1416.0000,-437.0000,2199.0000,0.8695
24464284,101292.601562,20.270000,2.697659,-0.8300,1.0200,8.7100,17.5000,9.6250,1.3125,0.0000,0.0000,0.0000,16163.0000,1473.0000,-400.0000,2209.0000,0.7066
24503767,101286.937500,20.280001,3.169364,-0.8500,1.3100,8.0000,25.1250,16.0000,0.2500,0.0000,0.0000,0.0000,16152.0000,1591.0000,-301.0000,2222.0000,0.7302
24534357,101285.859375,20.280001,3.259336,-0.6200,1.4100,8.2500,24.7500,27.7500,4.6250,0.0000,0.0000,0.0000,16141.0000,1676.0000,-189.0000,2246.0000,0.7481
24564457,101283.023438,20.280001,3.495198,-0.4500,1.2800,8.0300,14.8125,31.2500,3.8750,0.0000,0.0000,0.0000,16135.0000,1707.0000,-30.0000,2277.0000,0.7301
24595763,101288.687500,20.270000,3.023479,-0.3100,1.4000,7.5700,12.7500,23.9375,3.0625,0.0000,0.0000,0.0000,16129.0000,1733.0000,104.0000,2299.0000,0.6740
24625312,101292.601562,20.270000,2.697659,0.1100,1.6800,7.3000,10.8750,16.8125,5.3750,0.0000,0.0000,0.0000,16120.0000,1769.0000,187.0000,2325.0000,0.6740
24654908,101283.703125,20.270000,3.438774,0.4700,1.8600,7.1700,4.0625,14.8125,10.0000,0.0000,0.0000,0.0000,16112.0000,1789.0000,250.0000,2364.0000,0.7245
24686254,101298.671875,20.280001,2.192430,0.7600,1.6100,7.3300,-9.0625,11.0000,17.0000,0.0000,0.0000,0.0000,16104.0000,1762.0000,295.0000,2430.0000,0.6032
24715763,101274.117188,20.280001,4.237387,1.4500,1.5000,7.3500,-16.3750,5.6875,19.8125,0.0000,0.0000,0.0000,16098.0000,1699.0000,301.0000,2514.0000,0.7155
24745364,101292.601562,20.270000,2.697659,1.5700,1.5800,8.4700,-2.5625,17.2500,15.3125,0.0000,0.0000,0.0000,16089.0000,1662.0000,342.0000,2590.0000,0.5526
24775233,101289.773438,20.280001,2.933509,1.4800,2.1700,9.5700,-3.5000,11.1250,15.5000,0.0000,0.0000,0.0000,16079.0000,1639.0000,395.0000,2657.0000,0.5762
24806562,101281.953125,20.280001,3.584665,1.4700,2.5700,10.9700,-10.3750,-6.3750,16.8750,0.0000,0.0000,0.0000,16071.0000,1605.0000,376.0000,2729.0000,0.6177
24836110,101271.968750,20.270000,4.416333,1.2300,2.9200,12.2100,-4.8125,-6.0000,9.3750,0.0000,0.0000,0.0000,16067.0000,1575.0000,338.0000,2773.0000,0.7334
24865613,101279.789062,20.270000,3.764617,0.4500,3.4100,12.5000,-2.7500,-7.3750,10.1875,0.0000,0.0000,0.0000,16061.0000,1573.0000,303.0000,2813.0000,0.7604
24905104,101290.851562,20.280001,2.843540,0.0200,3.3000,12.4400,4.3750,-17.2500,5.5625,0.0000,0.0000,0.0000,16056.0000,1601.0000,212.0000,2836.0000,0.7424
24935489,101290.851562,20.280001,2.843540,0.0000,3.2500,11.3000,9.4375,-20.6250,0.8125,0.0000,0.0000,0.0000,16052.0000,1657.0000,118.0000,2831.0000,0.7570
24965765,101289.773438,20.280001,2.933509,-0.5800,3.1000,10.8000,9.2500,-8.4375,1.6875,0.0000,0.0000,0.0000,16047.0000,1706.0000,77.0000,2833.0000,0.7064
24997143,101280.867188,20.270000,3.675149,-0.8000,2.6500,10.4000,10.6250,-7.2500,2.5000,0.0000,0.0000,0.0000,16041.0000,1760.0000,53.0000,2833.0000,0.8547
25026697,101280.867188,20.270000,3.675149,-1.2300,2.1700,9.3100,11.5625,-10.1250,11.0000,0.0000,0.0000,0.0000,16030.0000,1812.0000,23.0000,2863.0000,0.7985
25056215,101279.789062,20.270000,3.764617,-1.1500,1.9500,8.2700,11.4375,-2.3125,6.2500,0.0000,0.0000,0.0000,16018.0000,1863.0000,1.0000,2895.0000,0.9052
25087541,101280.867188,20.270000,3.675149,-1.0800,2.1400,7.9600,24.0000,13.1250,1.0625,0.0000,0.0000,0.0000,16007.0000,1935.0000,48.0000,2909.0000,0.9794
25147426,101282.617188,20.270000,3.529257,-0.4400,2.1000,7.6800,7.0625,9.8750,5.8750,0.0000,0.0000,0.0000,15984.0000,2048.0000,186.0000,2952.0000,0.9738
25177408,101283.703125,20.270000,3.438774,-0.1600,1.6500,7.9500,0.0625,-0.8750,7.2500,0.0000,0.0000,0.0000,15978.0000,2054.0000,193.0000,2983.0000,0.8761
25206818,101279.789062,20.270000,3.764617,0.2200,1.7000,7.7300,1.8125,-7.4375,5.1875,0.0000,0.0000,0.0000,15973.0000,2064.0000,171.0000,3002.0000,0.8761
25238093,101280.867188,20.270000,3.675149,0.4900,1.4300,7.1200,-8.0625,-19.4375,7.7500,0.0000,0.0000,0.0000,15970.0000,2060.0000,102.0000,3023.0000,0.9592
25267690,101279.789062,20.270000,3.764617,0.9100,1.5300,6.9300,-14.0000,-15.6875,9.0625,0.0000,0.0000,0.0000,15971.0000,2019.0000,9.0000,3050.0000,1.0513
25297242,101281.953125,20.280001,3.584665,1.2000,1.8300,6.7800,-9.9375,0.3750,10.6875,0.0000,0.0000,0.0000,15968.0000,1980.0000,-22.0000,3089.0000,1.1164
25336361,101279.789062,20.270000,3.764617,1.7200,1.5400,8.5200,-11.8750,-3.7500,14.0625,0.0000,0.0000,0.0000,15961.0000,1922.0000,-58.0000,3159.0000,1.1254
25366816,101288.687500,20.270000,3.023479,2.3100,1.3000,9.5200,-8.6250,-10.5000,23.0000,0.0000,0.0000,0.0000,15949.0000,1891.0000,-127.0000,3237.0000,1.0602
25397067,101287.609375,20.270000,3.113450,2.3300,1.8100,10.5200,-17.8125,-1.7500,18.8750,0.0000,0.0000,0.0000,15939.0000,1824.0000,-169.0000,3321.0000,0.9951
25428410,101281.953125,20.280001,3.584665,2.1600,2.3100,10.7900,-3.8750,-8.3750,6.7500,0.0000,0.0000,0.0000,15933.0000,1798.0000,-200.0000,3364.0000,0.9861
25457937,101279.789062,20.270000,3.764617,2.1300,3.1800,11.4700,-9.1250,-9.5625,-7.1875,0.0000,0.0000,0.0000,15938.0000,1775.0000,-248.0000,3348.0000,1.0096
25487520,101283.703125,20.270000,3.438774,2.0700,3.6000,11.9000,-1.4375,-1.1875,-16.3125,0.0000,0.0000,0.0000,15952.0000,1758.0000,-262.0000,3289.0000,1.0096
25517341,101297.593750,20.280001,2.281886,1.5400,4.3400,12.7800,10.0000,-6.5625,-13.6250,0.0000,0.0000,0.0000,15960.0000,1798.0000,-258.0000,3226.0000,0.8613
25548741,101293.679688,20.280001,2.608201,1.2400,4.0500,11.7000,2.3750,-22.1250,-7.3750,0.0000,0.0000,0.0000,15963.0000,1842.0000,-322.0000,3180.0000,0.7546
25578275,101283.703125,20.270000,3.438774,0.5600,3.9200,10.9400,-0.8750,-7.5000,-7.0625,0.0000,0.0000,0.0000,15968.0000,1850.0000,-378.0000,3146.0000,0.7220
25607822,101288.007812,20.290001,3.080410,-0.1600,3.3400,9.9400,12.1875,16.3750,-10.3125,0.0000,0.0000,0.0000,15973.0000,1869.0000,-336.0000,3115.0000,0.6716
25639121,101284.781250,20.270000,3.348800,-0.5300,2.9100,9.4400,24.3750,33.7500,-13.3750,0.0000,0.0000,0.0000,15974.0000,1937.0000,-195.0000,3078.0000,0.6300
25668696,101289.773438,20.280001,2.933509,-0.8000,2.6400,9.3900,25.6875,29.5625,-8.9375,0.0000,0.0000,0.0000,15970.0000,2018.0000,-37.0000,3051.0000,0.6210
25698253,101290.851562,20.280001,2.843540,-0.9800,2.1700,8.3800,6.3750,17.8750,-8.3125,0.0000,0.0000,0.0000,15969.0000,2059.0000,65.0000,3030.0000,0.5940
25737555,101289.773438,20.280001,2.933509,-1.1200,1.7800,7.6500,1.1250,23.1250,-11.0625,0.0000,0.0000,0.0000,15978.0000,2045.0000,190.0000,2989.0000,0.5289
25768168,101291.531250,20.270000,2.787119,-0.8600,1.7000,7.0300,-1.9375,4.6250,-2.3750,0.0000,0.0000,0.0000,15982.0000,2028.0000,235.0000,2975.0000,0.4312
25798228,101289.773438,20.280001,2.933509,-0.6100,1.6200,7.2200,-5.8750,-8.3125,4.0000,0.0000,0.0000,0.0000,15983.0000,2008.0000,208.0000,2982.0000,0.3807
25829502,101287.609375,20.270000,3.113450,-0.4000,1.4500,6.8800,-9.5000,-4.8750,1.3750,0.0000,0.0000,0.0000,15986.0000,1978.0000,177.0000,2990.0000,0.4638
25859036,101299.750000,20.290001,2.102468,0.2100,1.3800,7.3600,-18.6250,-16.5000,2.8125,0.0000,0.0000,0.0000,15993.0000,1922.0000,115.0000,2992.0000,0.4132
25888646,101297.593750,20.280001,2.281886,0.7000,0.9700,7.8100,-19.8750,-23.0625,7.3125,0.0000,0.0000,0.0000,15998.0000,1857.0000,4.0000,3006.0000,0.2975
25918643,101309.726562,20.299999,1.271492,1.0100,0.6700,7.6300,-23.7500,-14.1250,6.0625,0.0000,0.0000,0.0000,16005.0000,1771.0000,-86.0000,3024.0000,0.1167
25949938,101298.671875,20.280001,2.192430,1.1700,0.1000,7.8200,-42.4375,-6.6875,6.0000,0.0000,0.0000,0.0000,16016.0000,1622.0000,-155.0000,3045.0000,0.0010
25979504,101284.781250,20.270000,3.348800,1.6900,-0.2900,8.0300,-49.2500,-6.5000,7.5625,0.0000,0.0000,0.0000,16029.0000,1430.0000,-223.0000,3069.0000,0.0425
26009007,101290.851562,20.280001,2.843540,1.9900,-0.4000,9.9700,-39.1875,3.8125,5.1875,0.0000,0.0000,0.0000,16039.0000,1255.0000,-259.0000,3090.0000,0.0425
26040409,101290.851562,20.280001,2.843540,1.9700,0.2400,10.7800,-32.6875,11.1250,5.3750,0.0000,0.0000,0.0000,16046.0000,1111.0000,-248.0000,3111.0000,0.0336
26069960,101291.531250,20.270000,2.787119,1.9400,1.1600,10.8800,-26.9375,10.1250,6.1875,0.0000,0.0000,0.0000,16049.0000,984.0000,-226.0000,3136.0000,0.0336
26099504,101281.953125,20.280001,3.584665,1.9000,2.1900,11.7200,-15.0000,0.4375,12.0625,0.0000,0.0000,0.0000,16046.0000,897.0000,-231.0000,3177.0000,0.0987
26138803,101293.679688,20.280001,2.608201,1.9500,2.9400,13.3900,5.0000,-11.7500,10.8750,0.0000,0.0000,0.0000,16033.0000,911.0000,-285.0000,3237.0000,0.0481
26169236,101280.867188,20.270000,3.675149,1.7800,2.9900,13.6200,1.6250,-27.5000,7.0000,0.0000,0.0000,0.0000,16023.0000,938.0000,-384.0000,3269.0000,0.2054
26199530,101288.687500,20.270000,3.023479,1.3300,3.2100,12.7200,5.0625,-38.0625,0.3125,0.0000,0.0000,0.0000,16015.0000,991.0000,-521.0000,3270.0000,0.2796
26229603,101280.867188,20.270000,3.675149,0.7600,2.9200,11.6000,20.1875,-29.3125,-3.1875,0.0000,0.0000,0.0000,16007.0000,1099.0000,-642.0000,3255.0000,0.5199
26260906,101287.609375,20.270000,3.113450,0.1200,2.5500,11.1400,24.3750,-9.3125,-4.1875,0.0000,0.0000,0.0000,16001.0000,1206.0000,-686.0000,3237.0000,0.6120
26290458,101280.867188,20.270000,3.675149,-0.6100,1.8800,10.8300,26.1250,2.7500,-4.6250,0.0000,0.0000,0.0000,15997.0000,1306.0000,-667.0000,3224.0000,0.6447
26320054,101285.859375,20.280001,3.259336,-0.9600,1.3500,9.6800,29.0625,4.3750,-9.3125,0.0000,0.0000,0.0000,15993.0000,1419.0000,-625.0000,3200.0000,0.6863
26351391,101285.859375,20.280001,3.259336,-0.9300,1.1100,9.0500,28.8750,8.4375,-9.9375,0.0000,0.0000,0.0000,15992.0000,1530.0000,-571.0000,3164.0000,0.7278
26380951,101295.437500,20.270000,2.461815,-1.0200,1.1900,8.4800,25.9375,6.7500,-4.6250,0.0000,0.0000,0.0000,15988.0000,1637.0000,-514.0000,3145.0000,0.6953
26410507,101284.781250,20.270000,3.348800,-0.8300,0.9300,7.6700,28.4375,6.0625,2.3125,0.0000,0.0000,0.0000,15977.0000,1740.0000,-469.0000,3150.0000,0.6717
26441837,101289.773438,20.280001,2.933509,-0.4200,1.1700,7.6000,28.1250,7.1250,4.8125,0.0000,0.0000,0.0000,15961.0000,1849.0000,-421.0000,3173.0000,0.7042
26471411,101288.687500,20.270000,3.023479,-0.0100,0.9600,7.1200,16.3125,12.3750,8.6875,0.0000,0.0000,0.0000,15946.0000,1928.0000,-366.0000,3209.0000,0.6391
26500910,101285.859375,20.280001,3.259336,0.1800,0.8400,6.8900,0.3125,18.7500,13.0625,0.0000,0.0000,0.0000,15936.0000,1933.0000,-299.0000,3266.0000,0.6627
26540062,101287.609375,20.270000,3.113450,0.6700,0.6100,6.6900,-2.2500,12.6875,13.3125,0.0000,0.0000,0.0000,15923.0000,1904.0000,-233.0000,3349.0000,0.6065
26570563,101274.117188,20.280001,4.237387,1.1300,0.7700,6.6800,-5.3750,13.1250,15.6875,0.0000,0.0000,0.0000,15913.0000,1870.0000,-195.0000,3416.0000,0.7189
26600632,101290.851562,20.280001,2.843540,1.6300,1.0400,7.4500,-14.0000,10.1250,16.3750,0.0000,0.0000,0.0000,15906.0000,1802.0000,-166.0000,3486.0000,0.6357
26630685,101298.671875,20.280001,2.192430,1.8600,0.7400,8.0600,-27.8750,-9.2500,18.4375,0.0000,0.0000,0.0000,15902.0000,1692.0000,-206.0000,3555.0000,0.5290
26662033,101283.023438,20.280001,3.495198,2.0300,0.2000,7.9400,-32.3750,-27.1875,20.6875,0.0000,0.0000,0.0000,15897.0000,1574.0000,-335.0000,3623.0000,0.5526
26720912,101293.000000,20.290001,2.664620,2.9600,1.1300,8.9800,-30.0000,-7.3125,13.2500,0.0000,0.0000,0.0000,15879.0000,1373.0000,-539.0000,3755.0000,0.5729
26751219,101303.656250,20.290001,1.777185,3.2500,1.7200,9.7200,-24.1875,-7.1875,5.1875,0.0000,0.0000,0.0000,15879.0000,1281.0000,-593.0000,3781.0000,0.4157
26782369,101283.023438,20.280001,3.495198,3.4200,2.9200,11.9700,-22.7500,-4.1250,1.6250,0.0000,0.0000,0.0000,15883.0000,1191.0000,-642.0000,3787.0000,0.4719
26811913,101293.679688,20.280001,2.608201,3.2700,4.0000,13.8300,-12.8125,-0.1250,1.0000,0.0000,0.0000,0.0000,15887.0000,1123.0000,-664.0000,3788.0000,0.4304
26841475,101283.703125,20.270000,3.438774,2.4700,4.5800,13.3400,-5.6250,-7.6875,2.7500,0.0000,0.0000,0.0000,15887.0000,1097.0000,-683.0000,3792.0000,0.4483
26872802,101285.859375,20.280001,3.259336,1.9800,4.3000,11.4100,3.3125,-27.6250,6.6875,0.0000,0.0000,0.0000,15877.0000,1116.0000,-774.0000,3810.0000,0.4629
26902345,101281.953125,20.280001,3.584665,1.6300,3.9900,10.4300,12.6250,-24.8125,-0.3125,0.0000,0.0000,0.0000,15865.0000,1184.0000,-877.0000,3817.0000,0.3976
26931874,101289.773438,20.280001,2.933509,0.7000,3.6500,11.2100,17.8750,-7.6250,-18.4375,0.0000,0.0000,0.0000,15868.0000,1265.0000,-908.0000,3769.0000,0.4066
26971342,101284.781250,20.270000,3.348800,0.1700,2.5800,9.4800,19.1875,-10.0000,-35.6250,0.0000,0.0000,0.0000,15897.0000,1389.0000,-919.0000,3596.0000,0.5223
27001759,101279.789062,20.270000,3.764617,0.1900,1.9500,7.7200,10.6875,-2.7500,-41.4375,0.0000,0.0000,0.0000,15931.0000,1445.0000,-917.0000,3424.0000,0.5492
27031989,101288.687500,20.270000,3.023479,-0.1400,1.2800,7.4400,-5.1875,6.0000,-35.7500,0.0000,0.0000,0.0000,15965.0000,1433.0000,-892.0000,3272.0000,0.5851
27062098,101285.859375,20.280001,3.259336,-0.3300,0.6400,7.3500,-8.5625,10.0000,-23.8750,0.0000,0.0000,0.0000,15993.0000,1396.0000,-852.0000,3159.0000,0.7333
27093429,101280.867188,20.270000,3.675149,0.0200,-0.4000,7.1200,-5.8125,11.1250,-10.7500,0.0000,0.0000,0.0000,16011.0000,1351.0000,-811.0000,3099.0000,0.7513
27122978,101284.101562,20.290001,3.405733,-0.3500,-0.7900,7.2200,-9.0625,11.2500,1.2500,0.0000,0.0000,0.0000,16017.0000,1318.0000,-767.0000,3095.0000,0.8311
27152529,101272.359375,20.290001,4.383797,-0.1100,-1.0100,7.3900,-29.5625,8.6875,-0.4375,0.0000,0.0000,0.0000,16026.0000,1216.0000,-748.0000,3095.0000,0.9256
27183879,101290.851562,20.280001,2.843540,0.0400,-1.4700,7.0400,-26.4375,1.2500,-2.4375,0.0000,0.0000,0.0000,16037.0000,1094.0000,-751.0000,3083.0000,0.8840
27213443,101289.773438,20.280001,2.933509,0.3700,-1.6100,7.4400,-17.4375,-4.5000,-2.1875,0.0000,0.0000,0.0000,16043.0000,1017.0000,-780.0000,3071.0000,0.8189
27242978,101280.867188,20.270000,3.675149,1.1200,-1.5200,8.2100,-12.5000,-5.5000,-3.3125,0.0000,0.0000,0.0000,16048.0000,964.0000,-809.0000,3053.0000,0.8930
27274327,101291.929688,20.290001,2.753572,1.8800,-1.2800,8.2100,-20.3750,-8.6250,3.0000,0.0000,0.0000,0.0000,16050.0000,899.0000,-854.0000,3049.0000,0.8335
27303899,101290.851562,20.280001,2.843540,1.9900,-0.8700,7.7600,-10.1250,-5.8125,12.8125,0.0000,0.0000,0.0000,16044.0000,842.0000,-901.0000,3081.0000,0.7414
27333449,101273.039062,20.270000,4.326859,1.9900,-0.6000,8.9100,-15.1250,19.0625,13.8125,0.0000,0.0000,0.0000,16038.0000,780.0000,-871.0000,3140.0000,0.8717
27363052,101293.679688,20.280001,2.608201,3.1300,-0.1500,11.3900,-21.1875,18.5000,4.1250,0.0000,0.0000,0.0000,16041.0000,677.0000,-799.0000,3166.0000,0.8066
27402493,101293.679688,20.280001,2.608201,3.0800,1.0300,10.8400,-18.8125,-0.7500,7.7500,0.0000,0.0000,0.0000,16039.0000,564.0000,-802.0000,3198.0000,0.6999
27433111,101298.671875,20.280001,2.192430,3.3800,1.9000,11.3600,-19.3750,17.3125,2.0000,0.0000,0.0000,0.0000,16039.0000,479.0000,-773.0000,3217.0000,0.5786
27463251,101289.773438,20.280001,2.933509,2.6600,2.8900,11.8700,-6.6875,17.0000,-9.0625,0.0000,0.0000,0.0000,16049.0000,439.0000,-699.0000,3193.0000,0.4336
27494575,101294.757812,20.280001,2.518234,2.4200,3.8000,11.4100,7.1250,-1.4375,-13.3125,0.0000,0.0000,0.0000,16058.0000,464.0000,-672.0000,3146.0000,0.4010
27524024,101296.921875,20.290001,2.337795,1.6000,3.4000,11.2600,-6.2500,-13.4375,-17.8750,0.0000,0.0000,0.0000,16070.0000,472.0000,-713.0000,3076.0000,0.3415
27553650,101291.929688,20.290001,2.753572,1.0700,3.1000,10.9900,-15.5625,-31.7500,-14.3750,0.0000,0.0000,0.0000,16079.0000,440.0000,-821.0000,3005.0000,0.2493
27584971,101286.937500,20.280001,3.169364,0.7200,2.7400,11.2100,-4.3125,-43.8750,-15.7500,0.0000,0.0000,0.0000,16082.0000,435.0000,-994.0000,2937.0000,0.2909
27614585,101287.609375,20.270000,3.113450,-0.3500,1.3000,10.2100,4.0000,-43.4375,-19.5625,0.0000,0.0000,0.0000,16084.0000,476.0000,-1168.0000,2856.0000,0.3179
27644137,101290.851562,20.280001,2.843540,-0.5400,0.2400,9.6200,-9.2500,-40.0000,-12.1875,0.0000,0.0000,0.0000,16082.0000,498.0000,-1339.0000,2787.0000,0.1696
27675428,101291.929688,20.290001,2.753572,-1.0900,-0.1600,9.9600,-18.3750,-34.8750,-11.3750,0.0000,0.0000,0.0000,16078.0000,460.0000,-1497.0000,2732.0000,0.1841
27704984,101298.671875,20.280001,2.192430,-0.9400,-0.4100,8.2500,-1.1875,-22.1875,-14.1250,0.0000,0.0000,0.0000,16077.0000,447.0000,-1618.0000,2672.0000,0.1425
27734562,101289.773438,20.280001,2.933509,-0.2900,-0.7900,7.6700,6.8750,6.8750,-14.0000,0.0000,0.0000,0.0000,16085.0000,495.0000,-1622.0000,2614.0000,0.2166
27773801,101291.929688,20.290001,2.753572,0.2100,-1.6300,8.2700,-19.5000,19.5625,4.3750,0.0000,0.0000,0.0000,16096.0000,398.0000,-1540.0000,2613.0000,0.1986
27804231,101293.000000,20.290001,2.664620,0.5800,-1.2000,8.2600,-19.2500,10.4375,16.6875,0.0000,0.0000,0.0000,16092.0000,305.0000,-1507.0000,2668.0000,0.2133
27834500,101283.023438,20.280001,3.495198,1.2900,-1.0400,7.7100,-13.3125,20.5625,13.0625,0.0000,0.0000,0.0000,16089.0000,232.0000,-1448.0000,2725.0000,0.3290
27864537,101295.843750,20.290001,2.427760,1.8800,-1.2800,8.0000,-15.5625,26.6250,8.3750,0.0000,0.0000,0.0000,16092.0000,144.0000,-1355.0000,2761.0000,0.2964
27895834,101284.101562,20.290001,3.405733,2.6800,-1.2600,8.4800,-24.8750,14.3750,-0.6250,0.0000,0.0000,0.0000,16098.0000,27.0000,-1292.0000,2761.0000,0.3201
27925456,101283.023438,20.280001,3.495198,2.9500,-1.3200,8.5900,-19.7500,9.7500,1.5000,0.0000,0.0000,0.0000,16100.0000,-70.0000,-1268.0000,2757.0000,0.3582
27954969,101291.929688,20.290001,2.753572,3.9100,-1.0700,8.8100,-10.3750,10.3125,0.9375,0.0000,0.0000,0.0000,16102.0000,-125.0000,-1234.0000,2758.0000,0.3492
27986362,101291.929688,20.290001,2.753572,3.7600,-1.3100,8.6500,-18.4375,9.6875,-3.4375,0.0000,0.0000,0.0000,16105.0000,-194.0000,-1205.0000,2750.0000,0.3492
28015862,101286.257812,20.299999,3.226295,4.0600,-0.6900,9.6500,-19.1875,14.7500,-13.7500,0.0000,0.0000,0.0000,16115.0000,-297.0000,-1175.0000,2699.0000,0.4526
28045477,101297.992188,20.299999,2.248848,4.0200,-0.8300,9.1700,-24.4375,16.9375,-21.5000,0.0000,0.0000,0.0000,16130.0000,-396.0000,-1122.0000,2613.0000,0.3842
28076828,101295.843750,20.290001,2.427760,3.0700,0.2500,8.0000,-28.1875,14.4375,-18.7500,0.0000,0.0000,0.0000,16145.0000,-514.0000,-1081.0000,2519.0000,0.3516
28106385,101300.828125,20.290001,2.012506,2.9600,0.7300,7.9800,-17.4375,30.9375,-23.0000,0.0000,0.0000,0.0000,16160.0000,-612.0000,-999.0000,2430.0000,0.2864
28135937,101291.929688,20.290001,2.753572,1.9600,1.6100,10.3500,-4.6250,42.6250,-26.5000,0.0000,0.0000,0.0000,16185.0000,-670.0000,-839.0000,2311.0000,0.2122
28175115,101289.093750,20.290001,2.989931,0.1700,0.9100,11.1200,20.4375,11.8125,-24.3125,0.0000,0.0000,0.0000,16211.0000,-597.0000,-735.0000,2174.0000,0.2684
28205403,101284.101562,20.290001,3.405733,0.8200,1.0900,9.8600,11.0625,-25.5625,-40.9375,0.0000,0.0000,0.0000,16228.0000,-537.0000,-831.0000,2031.0000,0.2684
28235684,101300.828125,20.290001,2.012506,0.2700,-0.8000,9.9800,-23.8125,-13.6250,-62.6250,0.0000,0.0000,0.0000,16247.0000,-604.0000,-919.0000,1806.0000,0.1202
28315390,101290.171875,20.299999,2.899961,0.4100,-1.4100,9.7300,16.3125,-51.3750,-65.5000,0.0000,0.0000,0.0000,16283.0000,-375.0000,-1427.0000,1059.0000,0.1348
28347203,101295.843750,20.290001,2.427760,0.8100,-1.4000,10.0200,-14.8125,-47.3750,-65.5000,0.0000,0.0000,0.0000,16279.0000,-390.0000,-1634.0000,780.0000,0.1022
28376594,101294.078125,20.299999,2.574654,1.9100,-1.7200,8.9300,1.6250,-29.2500,-51.4375,0.0000,0.0000,0.0000,16271.0000,-379.0000,-1801.0000,545.0000,0.0371
28406211,101294.078125,20.299999,2.574654,1.9500,-0.8900,10.5100,4.6875,9.5000,-42.3125,0.0000,0.0000,0.0000,16276.0000,-337.0000,-1807.0000,366.0000,0.0696
28437493,101297.992188,20.299999,2.248848,1.9000,-0.2000,11.4900,2.5625,20.7500,-26.6250,0.0000,0.0000,0.0000,16287.0000,-319.0000,-1736.0000,228.0000,0.0517
28467091,101297.992188,20.299999,2.248848,1.9400,0.2600,11.5700,26.0625,35.1875,-27.6875,0.0000,0.0000,0.0000,16302.0000,-240.0000,-1616.0000,128.0000,0.0754
28496653,101289.093750,20.290001,2.989931,1.4300,0.6500,10.7500,46.3125,65.9375,-44.8125,0.0000,0.0000,0.0000,16326.0000,-52.0000,-1381.0000,-27.0000,0.0990
28527942,101285.179688,20.290001,3.315759,0.5300,0.4700,11.3000,33.5625,59.2500,-44.1250,0.0000,0.0000,0.0000,16345.0000,135.0000,-1109.0000,-194.0000,0.1316
28557532,101293.000000,20.290001,2.664620,1.1600,1.5500,10.4200,32.6250,47.0625,-30.8125,0.0000,0.0000,0.0000,16353.0000,274.0000,-908.0000,-340.0000,0.0575
28587044,101297.992188,20.299999,2.248848,0.1600,1.4200,9.8500,7.0625,60.3125,-1.6250,0.0000,0.0000,0.0000,16362.0000,350.0000,-689.0000,-372.0000,0.0811
28626398,101293.000000,20.290001,2.664620,0.2600,0.2700,9.7300,-2.0625,52.8125,5.5625,0.0000,0.0000,0.0000,16372.0000,360.0000,-389.0000,-348.0000,0.0576
28656820,101293.000000,20.290001,2.664620,-1.8800,-1.0500,17.6900,-18.1875,42.6250,7.2500,0.0000,0.0000,0.0000,16377.0000,288.0000,-204.0000,-319.0000,0.0813
28686926,101290.171875,20.299999,2.899961,0.3100,-0.1900,9.3100,-4.3125,-8.1875,4.5625,0.0000,0.0000,0.0000,16378.0000,258.0000,-217.0000,-307.0000,0.1138
28716979,101294.078125,20.299999,2.574654,0.4500,-0.2400,9.5700,-5.0625,-1.7500,0.0000,0.0000,0.0000,0.0000,16378.0000,233.0000,-231.0000,-299.0000,0.1138
28748395,101290.171875,20.299999,2.899961,0.6500,-0.0500,9.3400,-8.6875,1.3125,3.4375,0.0000,0.0000,0.0000,16379.0000,192.0000,-230.0000,-294.0000,0.1789
28777961,101290.171875,20.299999,2.899961,0.3400,0.4200,8.7000,-15.7500,3.2500,0.2500,0.0000,0.0000,0.0000,16380.0000,131.0000,-216.0000,-287.0000,0.2440
28807514,101301.906250,20.299999,1.923053,0.0000,1.4100,9.5000,4.1875,7.5000,-0.6875,0.0000,0.0000,0.0000,16380.0000,106.0000,-180.0000,-289.0000,0.1373
28838861,101299.750000,20.290001,2.102468,0.1000,0.9400,9.5700,7.5625,2.3750,33.6250,0.0000,0.0000,0.0000,16382.0000,109.0000,-164.0000,-207.0000,0.0160
28868416,101301.906250,20.299999,1.923053,0.2000,0.6100,9.5100,0.7500,0.3750,62.6875,0.0000,0.0000,0.0000,16383.0000,106.0000,-166.0000,19.0000,-0.0582
28897977,101290.171875,20.299999,2.899961,0.2400,0.3200,9.6000,-0.0625,1.0000,77.1875,0.0000,0.0000,0.0000,16380.0000,110.0000,-165.0000,323.0000,0.0070
28929324,101294.078125,20.299999,2.574654,0.2200,-0.0300,9.5200,-0.5625,1.0000,78.8125,0.0000,0.0000,0.0000,16370.0000,105.0000,-163.0000,654.0000,-0.0020
28958864,101293.000000,20.290001,2.664620,0.1800,-0.3300,9.6200,-0.1875,0.6875,64.8750,0.0000,0.0000,0.0000,16356.0000,102.0000,-161.0000,942.0000,-0.0020
28988441,101294.078125,20.299999,2.574654,0.2200,-0.2800,9.6400,-0.3750,0.4375,44.2500,0.0000,0.0000,0.0000,16342.0000,100.0000,-161.0000,1157.0000,-0.0346
29018007,101277.351562,20.290001,3.967956,0.2300,0.0300,9.5900,0.1250,0.3125,30.0000,0.0000,0.0000,0.0000,16332.0000,98.0000,-163.0000,1295.0000,0.1048
29057526,101297.992188,20.299999,2.248848,0.2700,-0.0500,9.5400,-0.5000,0.7500,21.1250,0.0000,0.0000,0.0000,16321.0000,95.0000,-162.0000,1420.0000,0.0397
29088142,101293.000000,20.290001,2.664620,0.2200,-0.0600,9.5500,-0.1875,0.2500,6.6875,0.0000,0.0000,0.0000,16318.0000,92.0000,-163.0000,1462.0000,0.0161
29118204,101291.929688,20.290001,2.753572,0.2200,0.1900,9.5900,0.0625,0.0625,-0.1250,0.0000,0.0000,0.0000,16317.0000,92.0000,-163.0000,1467.0000,0.0992
29149556,101299.750000,20.290001,2.102468,0.2200,0.2000,9.5800,0.0000,0.0625,0.0000,0.0000,0.0000,0.0000,16317.0000,93.0000,-163.0000,1467.0000,0.0992
29179114,101291.929688,20.290001,2.753572,0.2400,0.1900,9.5700,-0.0625,0.1875,0.0625,0.0000,0.0000,0.0000,16317.0000,93.0000,-164.0000,1467.0000,0.1822
29208684,101293.679688,20.280001,2.608201,0.2400,0.1800,9.5900,-0.1875,-0.0625,0.0000,0.0000,0.0000,0.0000,16317.0000,94.0000,-164.0000,1467.0000,0.1530
29240005,101289.773438,20.280001,2.933509,0.2300,0.1900,9.5600,0.0625,0.0000,0.0625,0.0000,0.0000,0.0000,16317.0000,95.0000,-164.0000,1467.0000,0.1889
29269554,101291.929688,20.290001,2.753572,0.2000,0.2000,9.5600,0.0625,0.1875,0.0000,0.0000,0.0000,0.0000,16317.0000,96.0000,-165.0000,1467.0000,0.1978
29299112,101289.773438,20.280001,2.933509,0.2300,0.1900,9.5700,-0.1250,0.0000,-0.1250,0.0000,0.0000,0.0000,16317.0000,97.0000,-165.0000,1467.0000,0.2337
29328904,101298.671875,20.280001,2.192430,0.2500,0.1800,9.5800,0.0000,0.2500,-0.0625,0.0000,0.0000,0.0000,16317.0000,98.0000,-165.0000,1467.0000,0.0562
29360317,101305.421875,20.280001,1.630303,0.2300,0.1700,9.5800,-0.1250,-0.0625,0.0625,0.0000,0.0000,0.0000,16317.0000,98.0000,-165.0000,1467.0000,-0.0057
29389866,101301.507812,20.280001,1.956089,0.1800,0.1700,9.5800,-0.0625,-0.0625,0.0000,0.0000,0.0000,0.0000,16317.0000,99.0000,-165.0000,1467.0000,-0.0765
29419425,101296.523438,20.270000,2.371342,0.2300,0.1900,9.5800,0.0000,-0.1875,0.0625,0.0000,0.0000,0.0000,16317.0000,100.0000,-165.0000,1467.0000,-0.1148
29458683,101296.523438,20.270000,2.371342,0.2600,0.1900,9.5700,-0.0625,0.1875,0.0000,0.0000,0.0000,0.0000,16317.0000,101.0000,-166.0000,1467.0000,-0.0879
29489256,101299.750000,20.290001,2.102468,0.2200,0.2000,9.5900,0.0000,-0.0625,0.0000,0.0000,0.0000,0.0000,16317.0000,101.0000,-166.0000,1467.0000,-0.1530
29519360,101285.859375,20.280001,3.259336,0.2000,0.1800,9.5800,-0.0625,-0.0625,0.0625,0.0000,0.0000,0.0000,16317.0000,102.0000,-166.0000,1467.0000,-0.0879
29550732,101290.851562,20.280001,2.843540,0.2200,0.2000,9.5700,0.0625,-0.1250,-0.1250,0.0000,0.0000,0.0000,16317.0000,103.0000,-166.0000,1467.0000,-0.0969
29580302,101294.757812,20.280001,2.518234,0.2600,0.1700,9.5800,0.0000,-0.0625,0.0000,0.0000,0.0000,0.0000,16317.0000,103.0000,-167.0000,1467.0000,-0.1204
29609816,101299.750000,20.290001,2.102468,0.2400,0.1900,9.5800,-0.0625,0.0000,0.1250,0.0000,0.0000,0.0000,16317.0000,104.0000,-167.0000,1467.0000,-0.2035
29639751,101283.023438,20.280001,3.495198,0.2100,0.2000,9.5900,0.0625,-0.0625,-0.0625,0.0000,0.0000,0.0000,16317.0000,105.0000,-167.0000,1467.0000,-0.0732
29671086,101296.523438,20.270000,2.371342,0.2300,0.2000,9.5600,-0.1875,0.0000,0.1250,0.0000,0.0000,0.0000,16317.0000,105.0000,-167.0000,1467.0000,0.0009
29700654,101303.257812,20.270000,1.810221,0.2400,0.2000,9.5800,0.0000,0.0000,0.0000,0.0000,0.0000,0.0000,16317.0000,106.0000,-167.0000,1467.0000,-0.0137
29730152,101293.679688,20.280001,2.608201,0.2500,0.2000,9.5800,-0.2500,0.1250,-0.0625,0.0000,0.0000,0.0000,16317.0000,107.0000,-167.0000,1467.0000,0.0100
29761462,101288.687500,20.270000,3.023479,0.2200,0.1800,9.5700,0.0000,0.0000,-0.1250,0.0000,0.0000,0.0000,16317.0000,107.0000,-168.0000,1467.0000,0.0752
29791014,101297.593750,20.280001,2.281886,0.2200,0.1900,9.5800,0.0000,0.0625,0.0000,0.0000,0.0000,0.0000,16317.0000,108.0000,-168.0000,1467.0000,0.0931
29820566,101293.679688,20.280001,2.608201,0.2600,0.2100,9.5800,-0.0625,0.1875,0.0000,0.0000,0.0000,0.0000,16317.0000,109.0000,-168.0000,1467.0000,0.0280
29890170,101298.671875,20.280001,2.192430,0.2700,0.2200,9.5900,0.0625,0.0000,-0.1250,0.0000,0.0000,0.0000,16317.0000,110.0000,-168.0000,1467.0000,-0.0371
29920488,101288.007812,20.290001,3.080410,0.2400,0.1500,9.5700,0.0000,0.1250,-0.0625,0.0000,0.0000,0.0000,16317.0000,111.0000,-169.0000,1467.0000,0.0191
29950759,101297.593750,20.280001,2.281886,0.2400,0.2100,9.5600,0.0625,-0.3125,-0.0625,0.0000,0.0000,0.0000,16317.0000,111.0000,-169.0000,1467.0000,0.0371
29980786,101305.421875,20.280001,1.630303,0.2000,0.1600,9.5700,0.0000,0.0625,0.0625,0.0000,0.0000,0.0000,16317.0000,112.0000,-169.0000,1467.0000,-0.1494
30012192,101284.781250,20.270000,3.348800,0.2200,0.2200,9.5800,0.1250,-0.0625,0.0000,0.0000,0.0000,0.0000,16317.0000,112.0000,-169.0000,1467.0000,-0.0517
30041731,101285.859375,20.280001,3.259336,0.2300,0.1600,9.5800,0.0000,-0.0625,0.0000,0.0000,0.0000,0.0000,16317.0000,113.0000,-169.0000,1467.0000,0.0932
30071291,101298.671875,20.280001,2.192430,0.2300,0.2100,9.5700,0.1250,-0.1250,0.0625,0.0000,0.0000,0.0000,16317.0000,113.0000,-169.0000,1467.0000,0.0516
30102633,101290.851562,20.280001,2.843540,0.2300,0.1600,9.5700,0.0000,-0.0625,-0.0625,0.0000,0.0000,0.0000,16317.0000,113.0000,-169.0000,1467.0000,0.0337
30132184,101297.593750,20.280001,2.281886,0.2400,0.2200,9.5800,0.0000,0.0000,0.0000,0.0000,0.0000,0.0000,16317.0000,113.0000,-169.0000,1467.0000,0.0337
30161714,101296.523438,20.270000,2.371342,0.2300,0.1700,9.5900,-0.0625,-0.1250,0.0625,0.0000,0.0000,0.0000,16317.0000,113.0000,-169.0000,1467.0000,0.0100
30193013,101299.750000,20.290001,2.102468,0.2400,0.1900,9.5700,0.1875,0.0625,-0.0625,0.0000,0.0000,0.0000,16317.0000,113.0000,-169.0000,1467.0000,0.0010
30222626,101290.851562,20.280001,2.843540,0.2200,0.1900,9.5800,0.0625,-0.1250,-0.0625,0.0000,0.0000,0.0000,16317.0000,113.0000,-169.0000,1467.0000,-0.0227
30252175,101284.781250,20.270000,3.348800,0.2400,0.1700,9.5800,0.0625,-0.3125,0.0625,0.0000,0.0000,0.0000,16317.0000,113.0000,-169.0000,1467.0000,0.0840
30281809,101296.523438,20.270000,2.371342,0.2200,0.1800,9.5600,0.0000,0.0000,0.0625,0.0000,0.0000,0.0000,16317.0000,113.0000,-169.0000,1467.0000,0.1581
30321286,101296.523438,20.270000,2.371342,0.2500,0.2000,9.5700,0.1875,-0.1875,-0.0625,0.0000,0.0000,0.0000,16317.0000,113.0000,-169.0000,1467.0000,0.0603
30351871,101288.687500,20.270000,3.023479,0.2400,0.1800,9.5700,0.0625,0.0000,0.0625,0.0000,0.0000,0.0000,16317.0000,113.0000,-169.0000,1467.0000,0.0367
30381919,101281.953125,20.280001,3.584665,0.2200,0.2100,9.5800,0.0000,0.0000,0.0000,0.0000,0.0000,0.0000,16317.0000,113.0000,-169.0000,1467.0000,0.1760
30413272,101292.601562,20.270000,2.697659,0.2200,0.1700,9.5800,-0.0625,-0.0625,0.0000,0.0000,0.0000,0.0000,16317.0000,113.0000,-169.0000,1467.0000,0.1614
30442829,101293.679688,20.280001,2.608201,0.2500,0.2000,9.6000,0.0625,0.0625,0.0625,0.0000,0.0000,0.0000,16317.0000,113.0000,-169.0000,1467.0000,0.1940
30472371,101295.437500,20.270000,2.461815,0.2200,0.1800,9.5800,0.0000,-0.1250,-0.1250,0.0000,0.0000,0.0000,16317.0000,113.0000,-169.0000,1467.0000,0.2031
30503693,101291.531250,20.270000,2.787119,0.2300,0.2000,9.5800,-0.0625,-0.0625,0.0000,0.0000,0.0000,0.0000,16317.0000,113.0000,-169.0000,1467.0000,0.2715
30533268,101298.671875,20.280001,2.192430,0.2300,0.1800,9.5700,0.0000,0.0000,-0.0625,0.0000,0.0000,0.0000,16317.0000,113.0000,-169.0000,1467.0000,0.2064
30562807,101300.429688,20.270000,2.046051,0.2400,0.1700,9.5600,0.1250,-0.2500,-0.0625,0.0000,0.0000,0.0000,16317.0000,113.0000,-169.0000,1467.0000,0.0761
30592705,101291.531250,20.270000,2.787119,0.2500,0.1800,9.5800,-0.1875,0.1250,0.0625,0.0000,0.0000,0.0000,16317.0000,113.0000,-169.0000,1467.0000,0.1177
30624012,101286.539062,20.270000,3.202404,0.2200,0.1800,9.5600,-0.0625,0.1250,-0.0625,0.0000,0.0000,0.0000,16317.0000,113.0000,-169.0000,1467.0000,0.2008
30653617,101288.687500,20.270000,3.023479,0.2400,0.1900,9.5800,0.0625,0.0625,-0.0625,0.0000,0.0000,0.0000,16317.0000,113.0000,-169.0000,1467.0000,0.2008
30683171,101296.523438,20.270000,2.371342,0.2500,0.2000,9.5600,0.0625,-0.0625,0.0000,0.0000,0.0000,0.0000,16317.0000,113.0000,-169.0000,1467.0000,0.0795
30722647,101287.609375,20.270000,3.113450,0.2300,0.1900,9.6000,-0.1250,0.0000,0.1250,0.0000,0.0000,0.0000,16317.0000,113.0000,-169.0000,1467.0000,0.1211
30753112,101295.843750,20.290001,2.427760,0.2100,0.2000,9.6100,0.0625,0.0000,0.1250,0.0000,0.0000,0.0000,16317.0000,113.0000,-169.0000,1467.0000,0.1030
30783153,101279.789062,20.270000,3.764617,0.2200,0.1900,9.5900,0.0625,0.0625,-0.0625,0.0000,0.0000,0.0000,16317.0000,113.0000,-169.0000,1467.0000,0.2333
30814527,101294.359375,20.270000,2.551273,0.2400,0.1800,9.5900,0.1250,-0.1875,0.0000,0.0000,0.0000,0.0000,16317.0000,113.0000,-169.0000,1467.0000,0.2097
30844018,101288.687500,20.270000,3.023479,0.2500,0.1800,9.5900,0.0000,0.1250,-0.1250,0.0000,0.0000,0.0000,16317.0000,113.0000,-169.0000,1467.0000,0.2928
30873615,101297.593750,20.280001,2.281886,0.2200,0.1900,9.5700,0.0000,0.0000,0.0000,0.0000,0.0000,0.0000,16317.0000,113.0000,-169.0000,1467.0000,0.3164
30903670,101293.679688,20.280001,2.608201,0.2200,0.1800,9.6000,0.0625,-0.1250,0.0000,0.0000,0.0000,0.0000,16317.0000,113.0000,-169.0000,1467.0000,0.2985
30934963,101293.679688,20.280001,2.608201,0.2600,0.2000,9.5600,-0.1875,0.0625,0.0625,0.0000,0.0000,0.0000,16317.0000,113.0000,-169.0000,1467.0000,0.2391
30964525,101291.531250,20.270000,2.787119,0.2300,0.2100,9.5800,0.0000,0.0625,0.0000,0.0000,0.0000,0.0000,16317.0000,113.0000,-169.0000,1467.0000,0.2155
30994048,101295.437500,20.270000,2.461815,0.2200,0.1900,9.6000,0.0000,0.0000,-0.0625,0.0000,0.0000,0.0000,16317.0000,113.0000,-169.0000,1467.0000,0.2245
31025405,101295.437500,20.270000,2.461815,0.2200,0.1900,9.5900,-0.0625,-0.1250,0.0000,0.0000,0.0000,0.0000,16317.0000,113.0000,-169.0000,1467.0000,0.1593
31055002,101296.523438,20.270000,2.371342,0.2500,0.2000,9.5900,0.0000,-0.2500,0.0625,0.0000,0.0000,0.0000,16317.0000,113.0000,-169.0000,1467.0000,0.1537
31084571,101287.609375,20.270000,3.113450,0.2500,0.2000,9.5700,0.1250,0.0625,-0.0625,0.0000,0.0000,0.0000,16317.0000,113.0000,-169.0000,1467.0000,0.0886
31114309,101295.437500,20.270000,2.461815,0.2200,0.1900,9.6000,-0.1250,-0.0625,0.0000,0.0000,0.0000,0.0000,16317.0000,113.0000,-169.0000,1467.0000,0.0796
31153827,101288.687500,20.270000,3.023479,0.2400,0.1900,9.5900,0.0000,0.2500,-0.0625,0.0000,0.0000,0.0000,16317.0000,113.0000,-169.0000,1467.0000,0.0796
31184232,101299.351562,20.270000,2.135505,0.2400,0.1700,9.5500,-0.0625,-0.1250,0.0625,0.0000,0.0000,0.0000,16317.0000,113.0000,-169.0000,1467.0000,0.0650
31214582,101287.609375,20.270000,3.113450,0.2300,0.1800,9.5800,-0.1250,0.0000,0.0000,0.0000,0.0000,0.0000,16317.0000,113.0000,-169.0000,1467.0000,0.1155
31245924,101291.531250,20.270000,2.787119,0.2400,0.1700,9.5700,-0.0625,0.0625,0.0000,0.0000,0.0000,0.0000,16317.0000,113.0000,-169.0000,1467.0000,0.1334
31275493,101285.859375,20.280001,3.259336,0.2200,0.1900,9.5900,0.0625,0.0625,-0.0625,0.0000,0.0000,0.0000,16317.0000,113.0000,-169.0000,1467.0000,0.1806
31305018,101301.507812,20.280001,1.956089,0.2400,0.1900,9.5600,0.0625,-0.0625,0.0625,0.0000,0.0000,0.0000,16317.0000,113.0000,-169.0000,1467.0000,0.1301
31336424,101291.531250,20.270000,2.787119,0.2300,0.1800,9.5700,0.0000,0.1875,0.0000,0.0000,0.0000,0.0000,16317.0000,113.0000,-169.0000,1467.0000,0.1626
31365936,101288.687500,20.270000,3.023479,0.2500,0.2100,9.6000,-0.0625,0.2500,-0.0625,0.0000,0.0000,0.0000,16317.0000,113.0000,-169.0000,1467.0000,0.2278
31395510,101295.437500,20.270000,2.461815,0.2200,0.1900,9.5600,0.0000,0.1250,0.0625,0.0000,0.0000,0.0000,16317.0000,113.0000,-169.0000,1467.0000,0.1627
31425241,101296.523438,20.270000,2.371342,0.2300,0.1900,9.5800,-0.1250,0.0000,0.0000,0.0000,0.0000,0.0000,16317.0000,113.0000,-169.0000,1467.0000,0.1536
31486996,101281.953125,20.280001,3.584665,0.2400,0.2100,9.5900,0.0625,-0.1875,0.0000,0.0000,0.0000,0.0000,16317.0000,113.0000,-169.0000,1467.0000,0.2097
31517011,101298.671875,20.280001,2.192430,0.2300,0.1900,9.5700,-0.0625,0.0625,0.0625,0.0000,0.0000,0.0000,16317.0000,113.0000,-169.0000,1467.0000,0.2154
31546436,101290.851562,20.280001,2.843540,0.1900,0.1900,9.5800,0.0000,0.0625,0.0625,0.0000,0.0000,0.0000,16317.0000,113.0000,-169.0000,1467.0000,0.1884
31585319,101302.578125,20.280001,1.867145,0.2400,0.2100,9.5700,0.0000,0.0000,0.0625,0.0000,0.0000,0.0000,16317.0000,113.0000,-169.0000,1467.0000,0.0964
31615653,101293.679688,20.280001,2.608201,0.2900,0.1900,9.5600,0.1875,0.1250,-0.0625,0.0000,0.0000,0.0000,16317.0000,113.0000,-169.0000,1467.0000,0.0313
31645736,101297.593750,20.280001,2.281886,0.1900,0.1600,9.6000,-0.0625,-0.1250,0.1250,0.0000,0.0000,0.0000,16317.0000,113.0000,-169.0000,1467.0000,0.0639
31677054,101295.843750,20.290001,2.427760,0.1500,0.2000,9.5800,0.0000,0.0625,-0.1250,0.0000,0.0000,0.0000,16317.0000,113.0000,-169.0000,1467.0000,0.0280
31706658,101293.679688,20.280001,2.608201,0.3000,0.2000,9.5800,0.1250,-0.2500,0.0000,0.0000,0.0000,0.0000,16317.0000,113.0000,-169.0000,1467.0000,-0.0136
31736239,101294.757812,20.280001,2.518234,0.2400,0.1900,9.5800,0.0000,-0.0625,0.0625,0.0000,0.0000,0.0000,16317.0000,113.0000,-169.0000,1467.0000,-0.0079
31766141,101297.593750,20.280001,2.281886,0.1500,0.1700,9.5800,-0.0625,-0.1250,-0.0625,0.0000,0.0000,0.0000,16317.0000,113.0000,-169.0000,1467.0000,-0.0169
31797469,101301.507812,20.280001,1.956089,0.2500,0.2100,9.6100,0.1250,-0.0625,-0.1250,0.0000,0.0000,0.0000,16317.0000,113.0000,-169.0000,1467.0000,-0.1797
31827048,101293.000000,20.290001,2.664620,0.3100,0.2000,9.5900,0.0625,0.0000,0.0625,0.0000,0.0000,0.0000,16317.0000,113.0000,-169.0000,1467.0000,-0.1325
31856644,101289.773438,20.280001,2.933509,0.2200,0.1800,9.5800,0.0000,0.0625,0.0000,0.0000,0.0000,0.0000,16317.0000,113.0000,-169.0000,1467.0000,-0.1235
31887988,101293.679688,20.280001,2.608201,0.1800,0.1800,9.5700,-0.0625,0.1875,0.1250,0.0000,0.0000,0.0000,16317.0000,113.0000,-169.0000,1467.0000,-0.0494
31917514,101294.078125,20.299999,2.574654,0.2500,0.2000,9.5700,0.0625,-0.1250,0.0625,0.0000,0.0000,0.0000,16317.0000,113.0000,-169.0000,1467.0000,-0.0528
31947113,101295.843750,20.290001,2.427760,0.2600,0.1700,9.5800,0.0625,0.0000,-0.1250,0.0000,0.0000,0.0000,16317.0000,113.0000,-169.0000,1467.0000,-0.0382
31986415,101299.750000,20.290001,2.102468,0.2400,0.1800,9.5800,-0.1250,0.0000,0.0000,0.0000,0.0000,0.0000,16317.0000,113.0000,-169.0000,1467.0000,-0.0707
32016874,101290.851562,20.280001,2.843540,0.2200,0.2100,9.5800,0.0000,0.1250,-0.0625,0.0000,0.0000,0.0000,16317.0000,113.0000,-169.0000,1467.0000,-0.0472
32046948,101300.828125,20.290001,2.012506,0.2200,0.1900,9.5800,0.0000,0.1250,-0.0625,0.0000,0.0000,0.0000,16317.0000,113.0000,-169.0000,1467.0000,-0.0977
32077034,101288.007812,20.290001,3.080410,0.2100,0.1900,9.6000,-0.1250,0.1250,0.1250,0.0000,0.0000,0.0000,16317.0000,113.0000,-169.0000,1467.0000,-0.0179
32108404,101272.359375,20.290001,4.383797,0.2200,0.2000,9.5800,0.0000,0.0625,0.1250,0.0000,0.0000,0.0000,16317.0000,113.0000,-169.0000,1467.0000,0.2249
32137957,101300.828125,20.290001,2.012506,0.2500,0.2000,9.5800,0.0625,0.0625,-0.1250,0.0000,0.0000,0.0000,16317.0000,113.0000,-169.0000,1467.0000,0.1597
32167524,101295.843750,20.290001,2.427760,0.2300,0.1800,9.5700,0.1250,-0.0625,0.0000,0.0000,0.0000,0.0000,16317.0000,113.0000,-169.0000,1467.0000,0.1091
32198851,101294.078125,20.299999,2.574654,0.2200,0.1700,9.5800,0.0000,0.1250,0.0000,0.0000,0.0000,0.0000,16317.0000,113.0000,-169.0000,1467.0000,0.1057
32228478,101293.000000,20.290001,2.664620,0.2100,0.1800,9.5900,-0.0625,0.0625,-0.0625,0.0000,0.0000,0.0000,16317.0000,113.0000,-169.0000,1467.0000,0.1147
32258027,101277.351562,20.290001,3.967956,0.2400,0.2100,9.6000,0.0000,0.0625,-0.0625,0.0000,0.0000,0.0000,16317.0000,113.0000,-169.0000,1467.0000,0.2688
32289370,101285.179688,20.290001,3.315759,0.2600,0.2000,9.5800,0.0625,-0.1250,0.1875,0.0000,0.0000,0.0000,16317.0000,113.0000,-169.0000,1467.0000,0.3901
32318904,101301.906250,20.299999,1.923053,0.2200,0.1900,9.5600,0.0625,-0.0625,0.0000,0.0000,0.0000,0.0000,16317.0000,113.0000,-169.0000,1467.0000,0.2980
32348520,101301.906250,20.299999,1.923053,0.2000,0.1700,9.5900,0.0625,-0.0625,0.1250,0.0000,0.0000,0.0000,16317.0000,113.0000,-169.0000,1467.0000,0.2891
32378113,101293.000000,20.290001,2.664620,0.2400,0.2000,9.5500,-0.1250,0.0625,-0.0625,0.0000,0.0000,0.0000,16317.0000,113.0000,-169.0000,1467.0000,0.2475
32417643,101293.000000,20.290001,2.664620,0.2700,0.1900,9.5800,-0.1875,0.0625,0.0625,0.0000,0.0000,0.0000,16317.0000,113.0000,-169.0000,1467.0000,0.0756
32448069,101293.000000,20.290001,2.664620,0.2200,0.1800,9.5800,0.0000,0.0000,0.0000,0.0000,0.0000,0.0000,16317.0000,113.0000,-169.0000,1467.0000,0.1408
32478200,101293.000000,20.290001,2.664620,0.2200,0.1700,9.5700,-0.0625,0.0000,0.0000,0.0000,0.0000,0.0000,16317.0000,113.0000,-169.0000,1467.0000,0.1645
32509530,101295.843750,20.290001,2.427760,0.2500,0.1800,9.5900,0.0000,0.0625,0.0000,0.0000,0.0000,0.0000,16317.0000,113.0000,-169.0000,1467.0000,0.1498
32539035,101290.851562,20.280001,2.843540,0.2400,0.2100,9.5600,-0.1250,0.1875,0.0625,0.0000,0.0000,0.0000,16317.0000,113.0000,-169.0000,1467.0000,0.1677
32568629,101291.929688,20.290001,2.753572,0.2200,0.1900,9.5900,-0.1875,-0.1875,-0.0625,0.0000,0.0000,0.0000,16317.0000,113.0000,-169.0000,1467.0000,0.0463
32599989,101296.921875,20.290001,2.337795,0.2400,0.1900,9.5800,0.0000,0.1250,0.0625,0.0000,0.0000,0.0000,16317.0000,113.0000,-169.0000,1467.0000,-0.0515
32629547,101307.578125,20.290001,1.450388,0.2500,0.2100,9.5500,-0.1250,0.0000,0.0625,0.0000,0.0000,0.0000,16317.0000,113.0000,-169.0000,1467.0000,-0.0988
32659127,101293.000000,20.290001,2.664620,0.2400,0.2000,9.5800,-0.0625,0.0000,-0.0625,0.0000,0.0000,0.0000,16317.0000,113.0000,-169.0000,1467.0000,-0.0247
32689037,101291.929688,20.290001,2.753572,0.2100,0.1700,9.5800,-0.1250,-0.1875,-0.0625,0.0000,0.0000,0.0000,16317.0000,113.0000,-169.0000,1467.0000,-0.0158
32720406,101286.257812,20.299999,3.226295,0.2500,0.1800,9.5800,-0.0625,0.1250,0.0000,0.0000,0.0000,0.0000,16317.0000,113.0000,-169.0000,1467.0000,0.0404
32749950,101294.078125,20.299999,2.574654,0.2800,0.2000,9.5800,-0.1250,0.0000,0.0000,0.0000,0.0000,0.0000,16317.0000,113.0000,-169.0000,1467.0000,0.0314
32779511,101299.750000,20.290001,2.102468,0.2500,0.1800,9.5900,0.0000,0.1250,0.0625,0.0000,0.0000,0.0000,16317.0000,113.0000,-169.0000,1467.0000,-0.0248
32818821,101298.671875,20.280001,2.192430,0.2000,0.1600,9.5500,-0.0625,0.0000,0.0000,0.0000,0.0000,0.0000,16317.0000,113.0000,-169.0000,1467.0000,-0.0483
32849280,101285.179688,20.290001,3.315759,0.2200,0.2000,9.6000,-0.1250,0.1875,-0.1875,0.0000,0.0000,0.0000,16317.0000,113.0000,-169.0000,1467.0000,-0.0011
32879553,101298.671875,20.280001,2.192430,0.2500,0.1900,9.5900,0.0000,0.0625,0.0000,0.0000,0.0000,0.0000,16317.0000,113.0000,-169.0000,1467.0000,-0.0572
32910886,101294.078125,20.299999,2.574654,0.2600,0.1900,9.5800,-0.0625,-0.2500,-0.0625,0.0000,0.0000,0.0000,16317.0000,113.0000,-169.0000,1467.0000,-0.0335
32940501,101293.000000,20.290001,2.664620,0.2400,0.1800,9.5700,-0.1250,-0.0625,0.0000,0.0000,0.0000,0.0000,16317.0000,113.0000,-169.0000,1467.0000,0.0879
32970040,101293.000000,20.290001,2.664620,0.2200,0.2000,9.5600,-0.0625,0.0625,-0.0625,0.0000,0.0000,0.0000,16317.0000,113.0000,-169.0000,1467.0000,0.0879
32999926,101298.671875,20.280001,2.192430,0.2200,0.1900,9.5600,0.0000,-0.1250,0.1250,0.0000,0.0000,0.0000,16317.0000,113.0000,-169.0000,1467.0000,0.0318
33061583,101296.921875,20.290001,2.337795,0.2700,0.1700,9.6000,-0.1250,0.0625,0.0625,0.0000,0.0000,0.0000,16317.0000,113.0000,-169.0000,1467.0000,-0.0571
33091741,101300.828125,20.290001,2.012506,0.2800,0.1900,9.6100,0.0000,-0.1250,0.0625,0.0000,0.0000,0.0000,16317.0000,113.0000,-169.0000,1467.0000,-0.1133
33121320,101299.750000,20.290001,2.102468,0.2200,0.2000,9.5600,0.0000,-0.0625,0.0625,0.0000,0.0000,0.0000,16317.0000,113.0000,-169.0000,1467.0000,-0.1133
33152661,101296.921875,20.290001,2.337795,0.2100,0.1900,9.5600,0.0625,-0.0625,0.1250,0.0000,0.0000,0.0000,16317.0000,113.0000,-169.0000,1467.0000,-0.0988
33182218,101294.078125,20.299999,2.574654,0.2600,0.1800,9.5900,0.0000,0.0000,-0.1250,0.0000,0.0000,0.0000,16317.0000,113.0000,-169.0000,1467.0000,-0.1729
33211739,101291.929688,20.290001,2.753572,0.2900,0.1900,9.5600,0.0000,0.0625,0.0000,0.0000,0.0000,0.0000,16317.0000,113.0000,-169.0000,1467.0000,-0.1168
33250361,101297.992188,20.299999,2.248848,0.2000,0.1800,9.5900,-0.0625,-0.1875,0.1250,0.0000,0.0000,0.0000,16317.0000,113.0000,-169.0000,1467.0000,-0.1493
33280647,101291.929688,20.290001,2.753572,0.1900,0.1900,9.6000,-0.0625,0.0000,0.1250,0.0000,0.0000,0.0000,16317.0000,113.0000,-169.0000,1467.0000,-0.1404
33310734,101299.750000,20.290001,2.102468,0.2400,0.1900,9.5800,0.0625,-0.0625,0.0000,0.0000,0.0000,0.0000,16317.0000,113.0000,-169.0000,1467.0000,-0.1967
33340834,101291.929688,20.290001,2.753572,0.2800,0.1800,9.6000,-0.0625,0.1250,0.0000,0.0000,0.0000,0.0000,16317.0000,113.0000,-169.0000,1467.0000,-0.1405
33372177,101294.078125,20.299999,2.574654,0.2500,0.2100,9.5500,0.0625,0.1875,0.0000,0.0000,0.0000,0.0000,16317.0000,113.0000,-169.0000,1467.0000,-0.1169
33401723,101295.843750,20.290001,2.427760,0.2500,0.2000,9.5600,0.0000,-0.1250,0.0625,0.0000,0.0000,0.0000,16317.0000,113.0000,-169.0000,1467.0000,-0.0753
33431244,101299.750000,20.290001,2.102468,0.2400,0.1900,9.5800,-0.0625,-0.1250,0.0625,0.0000,0.0000,0.0000,16317.0000,113.0000,-169.0000,1467.0000,-0.0753
33462568,101299.750000,20.290001,2.102468,0.2500,0.1900,9.5800,0.0000,-0.0625,0.0000,0.0000,0.0000,0.0000,16317.0000,113.0000,-169.0000,1467.0000,-0.0989
33492087,101293.000000,20.290001,2.664620,0.2600,0.2000,9.5700,0.0625,-0.0625,0.0625,0.0000,0.0000,0.0000,16317.0000,113.0000,-169.0000,1467.0000,-0.0899
33521669,101291.929688,20.290001,2.753572,0.2500,0.2000,9.6000,-0.1875,0.0625,0.1250,0.0000,0.0000,0.0000,16317.0000,113.0000,-169.0000,1467.0000,-0.0899
33552978,101286.937500,20.280001,3.169364,0.2000,0.1700,9.5900,-0.0625,-0.0625,0.0000,0.0000,0.0000,0.0000,16317.0000,113.0000,-169.0000,1467.0000,0.0022
33582543,101293.000000,20.290001,2.664620,0.2000,0.1800,9.5600,0.0000,-0.0625,0.0625,0.0000,0.0000,0.0000,16317.0000,113.0000,-169.0000,1467.0000,-0.0067
33612076,101288.007812,20.290001,3.080410,0.2400,0.2000,9.5900,0.0000,-0.1875,0.0625,0.0000,0.0000,0.0000,16317.0000,113.0000,-169.0000,1467.0000,0.0911
33641825,101300.828125,20.290001,2.012506,0.2500,0.1900,9.5800,0.0000,-0.1250,0.1250,0.0000,0.0000,0.0000,16317.0000,113.0000,-169.0000,1467.0000,0.0170
33681371,101303.656250,20.290001,1.777185,0.2000,0.1900,9.5700,0.0000,0.0625,0.0625,0.0000,0.0000,0.0000,16317.0000,113.0000,-169.0000,1467.0000,-0.0628
33711770,101290.171875,20.299999,2.899961,0.2100,0.1800,9.5600,0.0000,0.0625,-0.0625,0.0000,0.0000,0.0000,16317.0000,113.0000,-169.0000,1467.0000,-0.0156
33742077,101293.000000,20.290001,2.664620,0.2400,0.1900,9.5600,0.0000,0.0625,-0.1250,0.0000,0.0000,0.0000,16317.0000,113.0000,-169.0000,1467.0000,0.0407
33773485,101289.093750,20.290001,2.989931,0.2500,0.2000,9.5600,0.0000,0.0000,0.0000,0.0000,0.0000,0.0000,16317.0000,113.0000,-169.0000,1467.0000,0.1294
33802996,101300.828125,20.290001,2.012506,0.2400,0.1900,9.5800,0.0625,-0.0625,0.0625,0.0000,0.0000,0.0000,16317.0000,113.0000,-169.0000,1467.0000,0.0642
33832603,101294.078125,20.299999,2.574654,0.2200,0.1600,9.6000,-0.1250,0.1875,-0.0625,0.0000,0.0000,0.0000,16317.0000,113.0000,-169.0000,1467.0000,0.0463
33863966,101293.000000,20.290001,2.664620,0.2200,0.1800,9.5700,0.0000,-0.1875,0.0625,0.0000,0.0000,0.0000,16317.0000,113.0000,-169.0000,1467.0000,-0.0042
33893523,101302.976562,20.299999,1.833601,0.2300,0.2000,9.5900,0.0625,0.1250,-0.0625,0.0000,0.0000,0.0000,16317.0000,113.0000,-169.0000,1467.0000,-0.0873
33923050,101294.078125,20.299999,2.574654,0.2300,0.2100,9.5800,0.0625,0.0000,-0.0625,0.0000,0.0000,0.0000,16317.0000,113.0000,-169.0000,1467.0000,-0.1378
33952744,101289.093750,20.290001,2.989931,0.2400,0.1800,9.5900,-0.1250,0.0625,-0.0625,0.0000,0.0000,0.0000,16317.0000,113.0000,-169.0000,1467.0000,-0.0401
33984084,101304.742188,20.290001,1.686718,0.2500,0.1800,9.5900,0.0000,0.0625,0.0000,0.0000,0.0000,0.0000,16317.0000,113.0000,-169.0000,1467.0000,-0.0492
34013676,101296.242188,20.309999,2.394722,0.2600,0.2000,9.5900,0.0625,-0.1250,0.1250,0.0000,0.0000,0.0000,16317.0000,113.0000,-169.0000,1467.0000,-0.0997
34043236,101295.156250,20.299999,2.485196,0.2200,0.1900,9.5900,0.0000,0.0000,-0.0625,0.0000,0.0000,0.0000,16317.0000,113.0000,-169.0000,1467.0000,-0.1176
34082559,101290.171875,20.299999,2.899961,0.2200,0.1800,9.5800,-0.0625,-0.1875,0.0625,0.0000,0.0000,0.0000,16317.0000,113.0000,-169.0000,1467.0000,-0.1266
34113012,101292.320312,20.309999,2.721041,0.2500,0.1900,9.5700,-0.0625,0.0000,0.0000,0.0000,0.0000,0.0000,16317.0000,113.0000,-169.0000,1467.0000,-0.0558
34143139,101297.992188,20.299999,2.248848,0.2600,0.1900,9.5600,-0.0625,0.0625,0.0000,0.0000,0.0000,0.0000,16317.0000,113.0000,-169.0000,1467.0000,-0.0883
34174510,101286.257812,20.299999,3.226295,0.2500,0.2000,9.5700,0.1250,0.0000,0.0000,0.0000,0.0000,0.0000,16317.0000,113.0000,-169.0000,1467.0000,-0.0322
34204068,101293.000000,20.290001,2.664620,0.2500,0.2000,9.5800,0.0000,-0.1250,0.1250,0.0000,0.0000,0.0000,16317.0000,113.0000,-169.0000,1467.0000,0.0509
34233621,101278.429688,20.299999,3.877978,0.2400,0.1900,9.5500,0.0000,0.0000,0.0000,0.0000,0.0000,0.0000,16317.0000,113.0000,-169.0000,1467.0000,0.1813
34263478,101286.257812,20.299999,3.226295,0.2100,0.1800,9.5900,-0.1250,-0.1250,0.1250,0.0000,0.0000,0.0000,16317.0000,113.0000,-169.0000,1467.0000,0.2049
34294847,101294.078125,20.299999,2.574654,0.2200,0.1900,9.5600,-0.0625,0.1250,-0.0625,0.0000,0.0000,0.0000,16317.0000,113.0000,-169.0000,1467.0000,0.2937
34324404,101295.156250,20.299999,2.485196,0.2500,0.1900,9.5900,-0.0625,0.0000,0.0625,0.0000,0.0000,0.0000,16317.0000,113.0000,-169.0000,1467.0000,0.3027
34353963,101297.992188,20.299999,2.248848,0.2500,0.1900,9.5600,-0.1250,0.0625,-0.1250,0.0000,0.0000,0.0000,16317.0000,113.0000,-169.0000,1467.0000,0.2791
34385320,101294.078125,20.299999,2.574654,0.2200,0.1900,9.5900,-0.0625,-0.0625,0.0625,0.0000,0.0000,0.0000,16317.0000,113.0000,-169.0000,1467.0000,0.2466
34414881,101280.593750,20.309999,3.698024,0.2100,0.1800,9.5400,0.0000,0.3125,0.0000,0.0000,0.0000,0.0000,16317.0000,113.0000,-169.0000,1467.0000,0.3443
34444435,101296.242188,20.309999,2.394722,0.2200,0.1800,9.5700,0.0000,0.0625,-0.1250,0.0000,0.0000,0.0000,16317.0000,113.0000,-169.0000,1467.0000,0.3589
34483803,101296.242188,20.309999,2.394722,0.2400,0.2000,9.5600,0.0000,0.0000,-0.1250,0.0000,0.0000,0.0000,16317.0000,113.0000,-169.0000,1467.0000,0.2757
34514255,101300.148438,20.309999,2.069431,0.2300,0.2000,9.5600,-0.0625,-0.1250,-0.1250,0.0000,0.0000,0.0000,16317.0000,113.0000,-169.0000,1467.0000,0.2162
34544336,101288.406250,20.309999,3.047369,0.2500,0.1900,9.5600,0.0625,-0.1250,0.0000,0.0000,0.0000,0.0000,16317.0000,113.0000,-169.0000,1467.0000,0.1331
34574408,101300.148438,20.309999,2.069431,0.2600,0.2000,9.5600,-0.0625,0.0625,0.0625,0.0000,0.0000,0.0000,16317.0000,113.0000,-169.0000,1467.0000,0.0174
34635573,101297.312500,20.309999,2.305266,0.2200,0.1900,9.5600,-0.0625,-0.1875,-0.0625,0.0000,0.0000,0.0000,16317.0000,113.0000,-169.0000,1467.0000,-0.0095
34665607,101294.078125,20.299999,2.574654,0.2300,0.1900,9.5800,0.0000,-0.1250,0.0625,0.0000,0.0000,0.0000,16317.0000,113.0000,-169.0000,1467.0000,-0.0006
34695025,101288.406250,20.309999,3.047369,0.2200,0.1800,9.5800,0.0000,0.0000,-0.0625,0.0000,0.0000,0.0000,16317.0000,113.0000,-169.0000,1467.0000,0.0793
34726318,101295.156250,20.299999,2.485196,0.2200,0.2000,9.5800,-0.0625,-0.1250,0.0625,0.0000,0.0000,0.0000,16317.0000,113.0000,-169.0000,1467.0000,0.0703
34755882,101287.328125,20.299999,3.136832,0.2200,0.1800,9.5800,0.0000,0.0625,0.0000,0.0000,0.0000,0.0000,16317.0000,113.0000,-169.0000,1467.0000,0.0142
34785467,101286.257812,20.299999,3.226295,0.2400,0.2000,9.5600,-0.0625,0.3125,-0.0625,0.0000,0.0000,0.0000,16317.0000,113.0000,-169.0000,1467.0000,0.0974
34816806,101301.906250,20.299999,1.923053,0.2200,0.1800,9.5800,-0.1250,-0.1875,0.0000,0.0000,0.0000,0.0000,16317.0000,113.0000,-169.0000,1467.0000,0.0502
34846335,101292.320312,20.309999,2.721041,0.2300,0.1900,9.5900,0.0625,-0.1250,0.0625,0.0000,0.0000,0.0000,16317.0000,113.0000,-169.0000,1467.0000,0.1154
34875910,101296.242188,20.309999,2.394722,0.2500,0.2000,9.6000,0.1250,-0.0625,0.0625,0.0000,0.0000,0.0000,16317.0000,113.0000,-169.0000,1467.0000,0.0501
34905497,101294.078125,20.299999,2.574654,0.2600,0.1900,9.5500,0.0000,-0.1875,0.0000,0.0000,0.0000,0.0000,16317.0000,113.0000,-169.0000,1467.0000,0.1006
34944989,101287.328125,20.299999,3.136832,0.2400,0.1900,9.5700,-0.1250,0.1875,-0.1250,0.0000,0.0000,0.0000,16317.0000,113.0000,-169.0000,1467.0000,0.1838
34975488,101300.148438,20.309999,2.069431,0.2200,0.2000,9.5800,0.0000,0.1250,0.0625,0.0000,0.0000,0.0000,16317.0000,113.0000,-169.0000,1467.0000,0.1333
35005783,101299.070312,20.299999,2.158885,0.2300,0.1900,9.5800,0.0000,0.1250,-0.0625,0.0000,0.0000,0.0000,16317.0000,113.0000,-169.0000,1467.0000,0.0444
35037110,101294.078125,20.299999,2.574654,0.2400,0.1800,9.6000,0.0000,-0.0625,-0.0625,0.0000,0.0000,0.0000,16317.0000,113.0000,-169.0000,1467.0000,0.0534
35066692,101300.148438,20.309999,2.069431,0.2400,0.1900,9.5700,0.0625,0.0000,0.0000,0.0000,0.0000,0.0000,16317.0000,113.0000,-169.0000,1467.0000,-0.0534
35096218,101288.406250,20.309999,3.047369,0.2300,0.1800,9.5900,-0.0625,0.0000,0.0000,0.0000,0.0000,0.0000,16317.0000,113.0000,-169.0000,1467.0000,-0.0713
35127631,101296.242188,20.309999,2.394722,0.2400,0.1800,9.5700,-0.0625,0.0625,0.0000,0.0000,0.0000,0.0000,16317.0000,113.0000,-169.0000,1467.0000,-0.0241
35157189,101287.328125,20.299999,3.136832,0.2500,0.1900,9.6000,-0.0625,-0.1875,-0.0625,0.0000,0.0000,0.0000,16317.0000,113.0000,-169.0000,1467.0000,0.0175
35186721,101288.406250,20.309999,3.047369,0.2200,0.2000,9.5800,0.1250,-0.1250,0.0625,0.0000,0.0000,0.0000,16317.0000,113.0000,-169.0000,1467.0000,0.0827
35216425,101300.148438,20.309999,2.069431,0.2100,0.2000,9.5800,-0.1250,-0.0625,0.0000,0.0000,0.0000,0.0000,16317.0000,113.0000,-169.0000,1467.0000,0.0322
35247797,101291.250000,20.299999,2.810501,0.2300,0.1900,9.5700,-0.0625,0.0000,-0.0625,0.0000,0.0000,0.0000,16317.0000,113.0000,-169.0000,1467.0000,-0.0004
35277368,101297.312500,20.309999,2.305266,0.2300,0.2000,9.5500,0.0000,0.0625,0.0000,0.0000,0.0000,0.0000,16317.0000,113.0000,-169.0000,1467.0000,0.0232
35306938,101292.320312,20.309999,2.721041,0.2200,0.1800,9.6000,0.0000,-0.0625,-0.0625,0.0000,0.0000,0.0000,16317.0000,113.0000,-169.0000,1467.0000,0.0794
35346301,101301.226562,20.309999,1.979469,0.2300,0.1900,9.5500,-0.0625,0.1875,-0.0625,0.0000,0.0000,0.0000,16317.0000,113.0000,-169.0000,1467.0000,0.0199
35376751,101296.242188,20.309999,2.394722,0.2700,0.2000,9.5800,-0.0625,-0.0625,-0.0625,0.0000,0.0000,0.0000,16317.0000,113.0000,-169.0000,1467.0000,0.0524
35406841,101292.320312,20.309999,2.721041,0.2300,0.1900,9.6000,0.0000,0.0625,0.0625,0.0000,0.0000,0.0000,16317.0000,113.0000,-169.0000,1467.0000,0.0198
35438089,101289.492188,20.309999,2.956891,0.2100,0.1800,9.5800,-0.0625,-0.0625,-0.0625,0.0000,0.0000,0.0000,16317.0000,113.0000,-169.0000,1467.0000,0.0760
35467704,101286.257812,20.299999,3.226295,0.2500,0.1800,9.5800,0.0625,0.1250,-0.0625,0.0000,0.0000,0.0000,16317.0000,113.0000,-169.0000,1467.0000,0.0849
35497255,101292.320312,20.309999,2.721041,0.2400,0.1900,9.5900,-0.0625,0.0000,0.0000,0.0000,0.0000,0.0000,16317.0000,113.0000,-169.0000,1467.0000,0.0523
35527191,101296.242188,20.309999,2.394722,0.2200,0.1800,9.5800,0.0000,-0.1250,0.0625,0.0000,0.0000,0.0000,16317.0000,113.0000,-169.0000,1467.0000,0.0848
