timestamp,baro_pressure,baro_temperature,baro_altitude,accel_x,accel_y,accel_z,gyro_x,gyro_y,gyro_z,mag_x,mag_y,mag_z,quat_w,quat_x,quat_y,quat_z,fusion_altitude,fusion_velocity
3866788,101291.890625,20.780001,2.757130,0.2300,0.2200,9.5900,0.0625,-0.2500,0.0000,0.0000,0.0000,0.0000,16382.0000,165.0000,-218.0000,0.0000,0.2206,3.3086
4009742,101284.062500,20.780001,3.408783,0.2200,0.2000,9.5500,-0.0625,-0.1250,0.0000,0.0000,0.0000,0.0000,16382.0000,165.0000,-218.0000,0.0000,0.4933,6.4065
4157453,101282.976562,20.770000,3.499265,0.2400,0.2100,9.5600,0.0625,0.0625,0.0000,0.0000,0.0000,0.0000,16382.0000,165.0000,-218.0000,0.0000,0.7732,8.6837
4292243,101285.140625,20.780001,3.319318,0.2400,0.2100,9.6000,0.0000,0.1875,0.0625,0.0000,0.0000,0.0000,16382.0000,165.0000,-218.0000,0.0000,1.0388,10.0618
4320860,101293.656250,20.770000,2.609725,0.2000,0.2000,9.5700,0.0000,0.0625,0.0625,0.0000,0.0000,0.0000,16382.0000,165.0000,-218.0000,0.0000,1.2475,10.1749
4349457,101289.742188,20.770000,2.936051,0.2300,0.2100,9.6000,-0.1875,0.1250,-0.1250,0.0000,0.0000,0.0000,16382.0000,165.0000,-218.0000,0.0000,1.4824,10.6457
4379915,101286.898438,20.770000,3.172922,0.2300,0.2200,9.5700,0.1250,0.1875,0.1250,0.0000,0.0000,0.0000,16382.0000,165.0000,-218.0000,0.0000,1.7363,11.2595
4409294,101290.820312,20.770000,2.846081,0.2300,0.2100,9.5700,0.0625,0.1250,0.0000,0.0000,0.0000,0.0000,16382.0000,165.0000,-218.0000,0.0000,1.9639,11.2969
4439125,101290.820312,20.770000,2.846081,0.2400,0.2100,9.5800,0.0625,0.0000,0.0000,0.0000,0.0000,0.0000,16382.0000,165.0000,-218.0000,0.0000,2.1916,11.3232
4469502,101282.976562,20.770000,3.499265,0.2200,0.2000,9.5500,0.0000,-0.0625,-0.0625,0.0000,0.0000,0.0000,16382.0000,165.0000,-218.0000,0.0000,2.4716,12.1253
4499366,101276.226562,20.780001,4.061493,0.2200,0.2000,9.5500,-0.1875,0.0000,-0.0625,0.0000,0.0000,0.0000,16382.0000,165.0000,-218.0000,0.0000,2.5208,9.2258
4529450,101286.898438,20.770000,3.172922,0.2400,0.2100,9.6000,0.0625,-0.1250,0.0000,0.0000,0.0000,0.0000,16382.0000,165.0000,-218.0000,0.0000,2.4337,5.1524
4569200,101300.796875,20.780001,2.015047,0.2500,0.2100,9.5800,0.0625,-0.0625,-0.0625,0.0000,0.0000,0.0000,16382.0000,165.0000,-218.0000,0.0000,2.2450,0.7758
4599746,101289.046875,20.780001,2.993997,0.2200,0.2100,9.5700,-0.0625,0.1250,-0.0625,0.0000,0.0000,0.0000,16382.0000,165.0000,-218.0000,0.0000,2.1526,-0.8431
4629945,101284.062500,20.780001,3.408783,0.2300,0.2000,9.5900,0.0000,-0.0625,-0.1875,0.0000,0.0000,0.0000,16382.0000,165.0000,-218.0000,0.0000,2.1643,-0.4142
4660099,101282.976562,20.770000,3.499265,0.2300,0.2000,9.5800,0.0000,-0.1250,0.0625,0.0000,0.0000,0.0000,16382.0000,165.0000,-218.0000,0.0000,2.1507,-0.4949
4691530,101282.976562,20.770000,3.499265,0.2200,0.2100,9.5500,0.0625,0.0625,0.0625,0.0000,0.0000,0.0000,16382.0000,165.0000,-218.0000,0.0000,2.1133,-0.9067
4721153,101292.968750,20.780001,2.667162,0.2100,0.2200,9.5700,0.0000,0.1875,0.0000,0.0000,0.0000,0.0000,16382.0000,165.0000,-218.0000,0.0000,2.0421,-1.7032
4750781,101287.976562,20.780001,3.082951,0.2200,0.1900,9.5700,0.0000,-0.0625,-0.0625,0.0000,0.0000,0.0000,16382.0000,165.0000,-218.0000,0.0000,2.0041,-1.7618
4782127,101287.976562,20.780001,3.082951,0.2400,0.2000,9.5600,-0.0625,-0.1250,0.0000,0.0000,0.0000,0.0000,16382.0000,165.0000,-218.0000,0.0000,1.9008,-2.7826
4811824,101285.140625,20.780001,3.319318,0.2300,0.2100,9.5400,0.0000,0.0625,-0.1250,0.0000,0.0000,0.0000,16382.0000,165.0000,-218.0000,0.0000,1.7602,-4.0569
4841418,101300.796875,20.780001,2.015047,0.2300,0.2100,9.5900,0.0000,-0.1250,0.0625,0.0000,0.0000,0.0000,16382.0000,165.0000,-218.0000,0.0000,1.6041,-5.1812
4883789,101289.046875,20.780001,2.993997,0.2300,0.2000,9.5800,0.0000,0.0000,-0.1250,0.0000,0.0000,0.0000,16382.0000,165.0000,-218.0000,0.0000,1.6421,-3.0566
4931957,101292.968750,20.780001,2.667162,0.2300,0.2000,9.5800,0.0000,-0.1250,-0.0625,0.0000,0.0000,0.0000,16382.0000,165.0000,-218.0000,0.0000,1.5561,-3.4300
4962105,101287.976562,20.780001,3.082951,0.2300,0.2200,9.5800,0.0000,-0.0625,-0.1250,0.0000,0.0000,0.0000,16382.0000,165.0000,-218.0000,0.0000,1.4619,-3.8146
5000809,101286.898438,20.770000,3.172922,0.2400,0.2100,9.5900,0.0625,0.0625,0.1250,0.0000,0.0000,0.0000,16382.0000,165.0000,-218.0000,0.0000,1.3658,-4.1116
5031126,101287.976562,20.780001,3.082951,0.2200,0.2100,9.5800,0.0000,0.0000,-0.1250,0.0000,0.0000,0.0000,16382.0000,165.0000,-218.0000,0.0000,1.2625,-4.4275
5061272,101282.976562,20.770000,3.499265,0.2300,0.2100,9.5600,-0.0625,-0.1250,0.0000,0.0000,0.0000,0.0000,16382.0000,165.0000,-218.0000,0.0000,1.2757,-2.9009
5091432,101296.890625,20.780001,2.340337,0.2300,0.2200,9.5800,0.0625,-0.0625,0.1250,0.0000,0.0000,0.0000,16382.0000,165.0000,-218.0000,0.0000,1.1546,-3.8466
5122883,101291.203125,20.790001,2.814059,0.2400,0.2000,9.5700,-0.1250,0.1250,0.0000,0.0000,0.0000,0.0000,16382.0000,165.0000,-218.0000,0.0000,1.0715,-3.9402
5152442,101277.296875,20.780001,3.972531,0.2400,0.2100,9.5700,-0.0625,0.0000,0.0000,0.0000,0.0000,0.0000,16382.0000,165.0000,-218.0000,0.0000,1.0573,-2.9701
5182091,101289.046875,20.780001,2.993997,0.2300,0.2000,9.5800,0.0000,0.1250,-0.0625,0.0000,0.0000,0.0000,16382.0000,165.0000,-218.0000,0.0000,1.0954,-1.5088
5213525,101285.140625,20.780001,3.319318,0.2400,0.2200,9.5700,0.0625,0.0000,0.0000,0.0000,0.0000,0.0000,16382.0000,165.0000,-218.0000,0.0000,1.0615,-1.5640
5243135,101292.968750,20.780001,2.667162,0.2300,0.2100,9.5700,0.0000,0.0000,-0.1250,0.0000,0.0000,0.0000,16382.0000,165.0000,-218.0000,0.0000,1.0082,-1.8949
5272746,101291.890625,20.780001,2.757130,0.2200,0.1900,9.5700,-0.0625,-0.0625,-0.0625,0.0000,0.0000,0.0000,16382.0000,165.0000,-218.0000,0.0000,0.9204,-2.6423
5304172,101291.203125,20.790001,2.814059,0.2500,0.1900,9.5600,-0.1250,-0.0625,0.0000,0.0000,0.0000,0.0000,16382.0000,165.0000,-218.0000,0.0000,0.8283,-3.2321
5333799,101290.820312,20.770000,2.846081,0.2200,0.2000,9.5800,-0.0625,0.0625,0.0625,0.0000,0.0000,0.0000,16382.0000,165.0000,-218.0000,0.0000,0.7477,-3.4716
5363426,101289.046875,20.780001,2.993997,0.2400,0.2100,9.5800,0.0000,-0.1875,-0.0625,0.0000,0.0000,0.0000,16382.0000,165.0000,-218.0000,0.0000,0.6373,-4.0862
5393029,101287.976562,20.780001,3.082951,0.2100,0.2000,9.5600,0.0625,0.0000,0.1250,0.0000,0.0000,0.0000,16382.0000,165.0000,-218.0000,0.0000,0.6499,-2.6713
5431887,101282.976562,20.770000,3.499265,0.2300,0.1900,9.5700,-0.0625,0.0000,-0.0625,0.0000,0.0000,0.0000,16382.0000,165.0000,-218.0000,0.0000,0.6484,-1.8919
5462658,101289.046875,20.780001,2.993997,0.2300,0.2100,9.5600,0.0625,-0.0625,-0.0625,0.0000,0.0000,0.0000,16382.0000,165.0000,-218.0000,0.0000,0.4907,-3.6903
5492782,101281.218750,20.780001,3.645665,0.2300,0.2000,9.5900,0.0000,-0.1875,0.0000,0.0000,0.0000,0.0000,16382.0000,165.0000,-218.0000,0.0000,0.4829,-2.6994
5524192,101284.062500,20.780001,3.408783,0.2300,0.2000,9.5800,-0.1250,0.0000,0.0625,0.0000,0.0000,0.0000,16382.0000,165.0000,-218.0000,0.0000,0.4237,-2.7780
5553807,101282.976562,20.770000,3.499265,0.2400,0.2100,9.5700,0.0000,0.1875,-0.0625,0.0000,0.0000,0.0000,16382.0000,165.0000,-218.0000,0.0000,0.4369,-1.7463
5583464,101285.140625,20.780001,3.319318,0.2200,0.2100,9.5600,0.0625,-0.1250,-0.1250,0.0000,0.0000,0.0000,16382.0000,165.0000,-218.0000,0.0000,0.4267,-1.3749
5614857,101285.140625,20.780001,3.319318,0.2400,0.2000,9.5600,0.0000,-0.0625,0.1250,0.0000,0.0000,0.0000,16382.0000,165.0000,-218.0000,0.0000,0.4109,-1.2003
5644466,101285.140625,20.780001,3.319318,0.2200,0.2100,9.5800,0.0000,0.0625,0.0000,0.0000,0.0000,0.0000,16382.0000,165.0000,-218.0000,0.0000,0.3918,-1.1262
5674070,101284.062500,20.780001,3.408783,0.2400,0.2000,9.5800,-0.0625,-0.1250,0.0625,0.0000,0.0000,0.0000,16382.0000,165.0000,-218.0000,0.0000,0.3651,-1.1888
5705545,101277.296875,20.780001,3.972531,0.2300,0.2100,9.5700,-0.0625,0.0000,0.0000,0.0000,0.0000,0.0000,16382.0000,165.0000,-218.0000,0.0000,0.3746,-0.6895
5735128,101268.398438,20.780001,4.713737,0.2400,0.2000,9.5700,-0.0625,-0.1875,-0.0625,0.0000,0.0000,0.0000,16382.0000,165.0000,-218.0000,0.0000,0.4018,-0.0751
5764759,101286.210938,20.790001,3.229854,0.2400,0.2000,9.6000,0.0000,0.1250,-0.0625,0.0000,0.0000,0.0000,16382.0000,165.0000,-218.0000,0.0000,0.4159,0.1594
5794387,101285.140625,20.780001,3.319318,0.2300,0.2100,9.5700,0.0000,0.0625,-0.1250,0.0000,0.0000,0.0000,16382.0000,165.0000,-218.0000,0.0000,0.3851,-0.3511
5833655,101301.882812,20.790001,1.925086,0.2300,0.2100,9.5800,0.0000,-0.0625,0.0000,0.0000,0.0000,0.0000,16382.0000,165.0000,-218.0000,0.0000,0.2682,-1.9991
5864042,101292.968750,20.780001,2.667162,0.2200,0.2000,9.5700,-0.0625,-0.1250,0.0000,0.0000,0.0000,0.0000,16382.0000,165.0000,-218.0000,0.0000,0.1980,-2.4518
5894238,101287.976562,20.780001,3.082951,0.2000,0.2000,9.5500,-0.0625,0.1875,0.0000,0.0000,0.0000,0.0000,16382.0000,165.0000,-218.0000,0.0000,0.1649,-2.2128
5925619,101291.890625,20.780001,2.757130,0.2400,0.2200,9.5500,0.0625,-0.0625,0.0000,0.0000,0.0000,0.0000,16382.0000,165.0000,-218.0000,0.0000,0.1123,-2.3386
5955212,101279.070312,20.770000,3.824601,0.2200,0.2000,9.5700,0.1250,-0.3125,0.0625,0.0000,0.0000,0.0000,16382.0000,165.0000,-218.0000,0.0000,0.1498,-1.0746
5984870,101301.882812,20.790001,1.925086,0.2500,0.2100,9.5800,-0.0625,-0.1875,-0.0625,0.0000,0.0000,0.0000,16382.0000,165.0000,-218.0000,0.0000,0.0198,-2.7015
6016297,101291.203125,20.790001,2.814059,0.2500,0.2200,9.5600,0.0000,-0.1250,-0.0625,0.0000,0.0000,0.0000,16382.0000,165.0000,-218.0000,0.0000,-0.0954,-3.6191
6045889,101289.046875,20.780001,2.993997,0.2300,0.2100,9.5900,0.0625,-0.0625,-0.0625,0.0000,0.0000,0.0000,16382.0000,165.0000,-218.0000,0.0000,-0.2572,-4.9614
6075496,101286.898438,20.770000,3.172922,0.2300,0.2100,9.5600,0.0000,-0.1250,0.0625,0.0000,0.0000,0.0000,16382.0000,165.0000,-218.0000,0.0000,-0.2452,-3.2918
6106905,101297.960938,20.790001,2.251390,0.2300,0.2000,9.5700,-0.0625,0.0000,0.0625,0.0000,0.0000,0.0000,16382.0000,165.0000,-218.0000,0.0000,-0.3335,-3.6297
6136568,101286.210938,20.790001,3.229854,0.2400,0.2100,9.5900,-0.1250,0.0000,-0.0625,0.0000,0.0000,0.0000,16382.0000,165.0000,-218.0000,0.0000,-0.2273,-0.9481
6166178,101292.968750,20.780001,2.667162,0.2400,0.2100,9.5700,-0.0625,-0.0625,0.1875,0.0000,0.0000,0.0000,16382.0000,165.0000,-218.0000,0.0000,-0.2208,-0.5656
6204918,101285.140625,20.780001,3.319318,0.2300,0.2000,9.5500,0.0625,0.0000,-0.0625,0.0000,0.0000,0.0000,16382.0000,165.0000,-218.0000,0.0000,-0.1954,-0.0145
6235298,101277.296875,20.780001,3.972531,0.2400,0.2000,9.5800,-0.0625,0.0000,-0.0625,0.0000,0.0000,0.0000,16382.0000,165.0000,-218.0000,0.0000,-0.0833,1.6709
6265525,101292.968750,20.780001,2.667162,0.2300,0.2200,9.5700,-0.0625,-0.0625,0.1250,0.0000,0.0000,0.0000,16382.0000,165.0000,-218.0000,0.0000,-0.1824,-0.3169
6295530,101292.968750,20.780001,2.667162,0.2300,0.2100,9.5500,0.0625,0.0625,0.0000,0.0000,0.0000,0.0000,16382.0000,165.0000,-218.0000,0.0000,-0.1082,0.8913
6326900,101294.039062,20.790001,2.578212,0.2300,0.2000,9.5700,0.0625,0.1250,0.0000,0.0000,0.0000,0.0000,16382.0000,165.0000,-218.0000,0.0000,-0.1217,0.4216
6356526,101285.140625,20.780001,3.319318,0.2300,0.2000,9.5700,-0.0625,0.1250,-0.0625,0.0000,0.0000,0.0000,16382.0000,165.0000,-218.0000,0.0000,-0.0939,0.7122
6386179,101285.140625,20.780001,3.319318,0.2300,0.2100,9.5800,-0.1250,0.0000,-0.0625,0.0000,0.0000,0.0000,16382.0000,165.0000,-218.0000,0.0000,-0.0792,0.7181
6417622,101292.968750,20.780001,2.667162,0.2200,0.2000,9.5800,0.1250,0.1250,-0.1250,0.0000,0.0000,0.0000,16382.0000,165.0000,-218.0000,0.0000,-0.0507,0.9307
6447194,101289.046875,20.780001,2.993997,0.2100,0.2100,9.5800,-0.0625,0.0625,-0.1250,0.0000,0.0000,0.0000,16382.0000,165.0000,-218.0000,0.0000,-0.0743,0.2977
6476830,101292.968750,20.780001,2.667162,0.2300,0.2200,9.5700,0.0000,0.1250,-0.1250,0.0000,0.0000,0.0000,16382.0000,165.0000,-218.0000,0.0000,-0.0743,0.2084
6508246,101285.140625,20.780001,3.319318,0.2400,0.2100,9.5500,-0.0625,-0.0625,0.0000,0.0000,0.0000,0.0000,16382.0000,165.0000,-218.0000,0.0000,-0.0790,0.0750
6537872,101287.289062,20.790001,3.140390,0.2200,0.2100,9.5800,0.0625,0.1250,-0.0625,0.0000,0.0000,0.0000,16382.0000,165.0000,-218.0000,0.0000,-0.1616,-1.1860
6567495,101294.039062,20.790001,2.578212,0.2400,0.2100,9.5900,0.0000,0.0000,0.0625,0.0000,0.0000,0.0000,16382.0000,165.0000,-218.0000,0.0000,-0.1604,-0.8122
6606206,101292.968750,20.780001,2.667162,0.2300,0.2100,9.5600,-0.0625,0.0625,0.1250,0.0000,0.0000,0.0000,16382.0000,165.0000,-218.0000,0.0000,-0.1437,-0.3189
6636578,101285.140625,20.780001,3.319318,0.2200,0.2100,9.5800,0.1875,0.1875,0.0000,0.0000,0.0000,0.0000,16382.0000,165.0000,-218.0000,0.0000,-0.0892,0.5947
6666761,101289.046875,20.780001,2.993997,0.2200,0.2000,9.5900,0.0000,-0.1250,0.0625,0.0000,0.0000,0.0000,16382.0000,165.0000,-218.0000,0.0000,-0.1253,-0.1256
6696925,101282.976562,20.770000,3.499265,0.2400,0.2000,9.5700,-0.0625,-0.1250,0.0000,0.0000,0.0000,0.0000,16382.0000,165.0000,-218.0000,0.0000,-0.0979,0.3240
6737025,101292.968750,20.780001,2.667162,0.2200,0.2100,9.5600,0.0625,-0.1250,0.1250,0.0000,0.0000,0.0000,16382.0000,165.0000,-218.0000,0.0000,-0.0914,0.3248
6792979,101289.046875,20.780001,2.993997,0.2200,0.2000,9.5900,0.0000,-0.0625,0.0625,0.0000,0.0000,0.0000,16382.0000,165.0000,-218.0000,0.0000,-0.0848,0.3250
6826586,101290.132812,20.790001,2.903519,0.2200,0.2000,9.5700,0.0625,0.0000,0.0625,0.0000,0.0000,0.0000,16382.0000,165.0000,-218.0000,0.0000,-0.0659,0.5111
6857885,101277.296875,20.780001,3.972531,0.2200,0.2100,9.5700,0.0000,0.0000,0.0000,0.0000,0.0000,0.0000,16382.0000,165.0000,-218.0000,0.0000,-0.0249,0.9730
6887653,101281.218750,20.780001,3.645665,0.2200,0.2100,9.5700,0.0000,-0.0625,0.0625,0.0000,0.0000,0.0000,16382.0000,165.0000,-218.0000,0.0000,0.0090,1.1895
6917670,101286.210938,20.790001,3.229854,0.2200,0.2200,9.5700,0.0625,0.0625,0.1875,0.0000,0.0000,0.0000,16382.0000,165.0000,-218.0000,0.0000,0.0665,1.6950
6949104,101289.046875,20.780001,2.993997,0.2200,0.2000,9.5700,0.0000,-0.0625,0.1875,0.0000,0.0000,0.0000,16382.0000,165.0000,-218.0000,0.0000,0.0991,1.6767
6978728,101291.203125,20.790001,2.814059,0.2300,0.2100,9.5800,-0.0625,0.0625,0.0625,0.0000,0.0000,0.0000,16382.0000,165.0000,-218.0000,0.0000,0.0540,0.4965
7008360,101294.039062,20.790001,2.578212,0.2300,0.2000,9.5800,0.0625,0.0625,0.1875,0.0000,0.0000,0.0000,16382.0000,165.0000,-218.0000,0.0000,0.0308,0.0002
7038138,101296.890625,20.780001,2.340337,0.2300,0.2100,9.5600,0.0000,-0.1875,0.2500,0.0000,0.0000,0.0000,16382.0000,165.0000,-218.0000,0.0000,-0.0720,-1.5422
7077785,101292.968750,20.780001,2.667162,0.2400,0.2200,9.5900,0.0000,0.0000,0.0000,0.0000,0.0000,0.0000,16382.0000,165.0000,-218.0000,0.0000,-0.0524,-0.7860
7108132,101285.140625,20.780001,3.319318,0.2300,0.2100,9.5900,0.0625,-0.1875,-0.0625,0.0000,0.0000,0.0000,16382.0000,165.0000,-218.0000,0.0000,-0.0181,-0.0354
7138282,101287.976562,20.780001,3.082951,0.2200,0.2100,9.5800,0.0000,0.0625,-0.0625,0.0000,0.0000,0.0000,16382.0000,165.0000,-218.0000,0.0000,0.0082,0.3693
7169717,101282.976562,20.770000,3.499265,0.2300,0.2000,9.6000,-0.0625,0.0625,0.0000,0.0000,0.0000,0.0000,16382.0000,165.0000,-218.0000,0.0000,-0.0427,-0.5054
7199386,101289.046875,20.780001,2.993997,0.2400,0.2200,9.5500,-0.1250,0.1250,0.0000,0.0000,0.0000,0.0000,16382.0000,165.0000,-218.0000,0.0000,-0.1014,-1.2337
7229011,101279.070312,20.770000,3.824601,0.2300,0.2000,9.5900,-0.0625,-0.0625,0.0625,0.0000,0.0000,0.0000,16382.0000,165.0000,-218.0000,0.0000,-0.0520,-0.1230
7260438,101289.046875,20.780001,2.993997,0.2400,0.2000,9.5600,0.0000,0.0000,-0.0625,0.0000,0.0000,0.0000,16382.0000,165.0000,-218.0000,0.0000,-0.0437,0.0383
7290018,101273.390625,20.780001,4.297882,0.2300,0.1900,9.5700,0.0000,-0.0625,0.0000,0.0000,0.0000,0.0000,16382.0000,165.0000,-218.0000,0.0000,0.0981,2.1549
7319663,101292.968750,20.780001,2.667162,0.2200,0.2200,9.5700,0.0000,-0.0625,0.0000,0.0000,0.0000,0.0000,16382.0000,165.0000,-218.0000,0.0000,0.1480,2.2559
7351065,101289.046875,20.780001,2.993997,0.2500,0.1900,9.5800,0.0625,-0.0625,0.0000,0.0000,0.0000,0.0000,16382.0000,165.0000,-218.0000,0.0000,0.2180,2.6303
7380738,101289.046875,20.780001,2.993997,0.2200,0.2000,9.5800,0.1875,0.0625,-0.0625,0.0000,0.0000,0.0000,16382.0000,165.0000,-218.0000,0.0000,0.2572,2.4291
7410333,101295.117188,20.790001,2.488245,0.2300,0.2100,9.5700,0.0625,-0.1875,0.0625,0.0000,0.0000,0.0000,16382.0000,165.0000,-218.0000,0.0000,0.1629,0.2848
7439933,101295.117188,20.790001,2.488245,0.2400,0.2100,9.5900,0.0625,-0.0625,-0.0625,0.0000,0.0000,0.0000,16382.0000,165.0000,-218.0000,0.0000,0.1070,-0.6390
7479230,101270.539062,20.790001,4.535294,0.2200,0.1900,9.5700,0.0000,-0.1250,0.0000,0.0000,0.0000,0.0000,16382.0000,165.0000,-218.0000,0.0000,0.1815,0.6710
7509568,101285.140625,20.780001,3.319318,0.2500,0.2000,9.5700,0.0000,-0.1250,0.0625,0.0000,0.0000,0.0000,16382.0000,165.0000,-218.0000,0.0000,0.2028,0.7890
7539696,101287.289062,20.790001,3.140390,0.2400,0.2200,9.5700,0.0000,0.0000,0.0625,0.0000,0.0000,0.0000,16382.0000,165.0000,-218.0000,0.0000,0.1481,-0.2687
7571166,101285.140625,20.780001,3.319318,0.2400,0.2200,9.5700,0.0000,0.0000,0.0000,0.0000,0.0000,0.0000,16382.0000,165.0000,-218.0000,0.0000,0.1527,-0.1184
7600739,101286.210938,20.790001,3.229854,0.2100,0.2200,9.5700,0.1250,-0.0625,0.0000,0.0000,0.0000,0.0000,16382.0000,165.0000,-218.0000,0.0000,0.0376,-1.8097
7630420,101287.289062,20.790001,3.140390,0.2300,0.2000,9.5800,0.0625,-0.1250,0.1250,0.0000,0.0000,0.0000,16382.0000,165.0000,-218.0000,0.0000,0.0820,-0.6008
7661840,101299.039062,20.790001,2.161426,0.2400,0.2100,9.5500,-0.0625,-0.0625,0.0000,0.0000,0.0000,0.0000,16382.0000,165.0000,-218.0000,0.0000,0.0190,-1.3660
7691409,101291.203125,20.790001,2.814059,0.2000,0.2100,9.5700,0.0625,-0.1875,-0.0625,0.0000,0.0000,0.0000,16382.0000,165.0000,-218.0000,0.0000,-0.0103,-1.3949
7720999,101286.210938,20.790001,3.229854,0.2200,0.2100,9.5500,-0.0625,0.0000,0.0625,0.0000,0.0000,0.0000,16382.0000,165.0000,-218.0000,0.0000,0.0639,0.1360
7752389,101289.046875,20.780001,2.993997,0.2600,0.1900,9.6000,0.0000,0.1250,-0.0625,0.0000,0.0000,0.0000,16382.0000,165.0000,-218.0000,0.0000,0.1079,0.7558
7781996,101292.968750,20.780001,2.667162,0.2200,0.1900,9.5800,-0.0625,-0.1250,0.0000,0.0000,0.0000,0.0000,16382.0000,165.0000,-218.0000,0.0000,-0.0658,-2.0775
7811627,101292.968750,20.780001,2.667162,0.2400,0.2200,9.5800,0.0000,-0.1875,0.0000,0.0000,0.0000,0.0000,16382.0000,165.0000,-218.0000,0.0000,-0.1049,-2.0409
7841245,101295.117188,20.790001,2.488245,0.2200,0.2100,9.5900,0.0625,0.0000,0.0000,0.0000,0.0000,0.0000,16382.0000,165.0000,-218.0000,0.0000,-0.1666,-2.3532
7880563,101290.132812,20.790001,2.903519,0.2400,0.1900,9.6000,-0.1250,0.0000,0.0625,0.0000,0.0000,0.0000,16382.0000,165.0000,-218.0000,0.0000,-0.2129,-2.3418
7910972,101294.039062,20.790001,2.578212,0.2300,0.2000,9.5700,0.1875,-0.0625,-0.0625,0.0000,0.0000,0.0000,16382.0000,165.0000,-218.0000,0.0000,-0.2781,-2.6167
7941088,101288.359375,20.799999,3.050928,0.2200,0.2100,9.5500,-0.0625,0.0625,0.0625,0.0000,0.0000,0.0000,16382.0000,165.0000,-218.0000,0.0000,-0.2816,-1.8854
7972566,101300.109375,20.799999,2.072480,0.2500,0.2200,9.5500,0.0000,0.0625,-0.0625,0.0000,0.0000,0.0000,16382.0000,165.0000,-218.0000,0.0000,-0.2656,-1.0791
8002126,101286.210938,20.790001,3.229854,0.2300,0.2100,9.5600,0.0000,-0.0625,-0.0625,0.0000,0.0000,0.0000,16382.0000,165.0000,-218.0000,0.0000,-0.2353,-0.3005
8031773,101292.968750,20.780001,2.667162,0.2500,0.2000,9.5700,0.1250,-0.1875,0.0000,0.0000,0.0000,0.0000,16382.0000,165.0000,-218.0000,0.0000,-0.2850,-0.9563
8063144,101295.117188,20.790001,2.488245,0.2500,0.2100,9.5400,0.0000,0.0000,0.0625,0.0000,0.0000,0.0000,16382.0000,165.0000,-218.0000,0.0000,-0.3320,-1.3744
8092793,101289.046875,20.780001,2.993997,0.2300,0.2000,9.5700,-0.0625,0.0625,0.0000,0.0000,0.0000,0.0000,16382.0000,165.0000,-218.0000,0.0000,-0.2928,-0.3742
8131526,101289.046875,20.780001,2.993997,0.2200,0.2000,9.5800,0.0000,0.0625,-0.1250,0.0000,0.0000,0.0000,16382.0000,165.0000,-218.0000,0.0000,-0.2572,0.2722
8181600,101283.367188,20.790001,3.466732,0.2400,0.2000,9.5800,-0.1250,-0.1250,-0.0625,0.0000,0.0000,0.0000,16382.0000,165.0000,-218.0000,0.0000,-0.1771,1.3917
8212048,101291.203125,20.790001,2.814059,0.2400,0.2000,9.5800,0.0625,0.0000,-0.1250,0.0000,0.0000,0.0000,16382.0000,165.0000,-218.0000,0.0000,-0.1890,0.7959
8242166,101295.117188,20.790001,2.488245,0.2200,0.2000,9.5500,-0.0625,0.0000,-0.0625,0.0000,0.0000,0.0000,16382.0000,165.0000,-218.0000,0.0000,-0.1814,0.6715
8272143,101287.289062,20.790001,3.140390,0.2400,0.2200,9.5900,0.0625,0.1250,0.0000,0.0000,0.0000,0.0000,16382.0000,165.0000,-218.0000,0.0000,-0.1754,0.5604
8311884,101291.203125,20.790001,2.814059,0.2400,0.1900,9.5800,-0.0625,0.0625,0.0000,0.0000,0.0000,0.0000,16382.0000,165.0000,-218.0000,0.0000,-0.0875,1.7102
8342457,101285.140625,20.780001,3.319318,0.2200,0.2100,9.5800,-0.1250,-0.1875,-0.0625,0.0000,0.0000,0.0000,16382.0000,165.0000,-218.0000,0.0000,-0.0916,1.1357
8372607,101295.117188,20.790001,2.488245,0.2300,0.2100,9.5700,0.1250,0.0000,0.0625,0.0000,0.0000,0.0000,16382.0000,165.0000,-218.0000,0.0000,-0.0994,0.6783
8403995,101290.132812,20.790001,2.903519,0.2300,0.2100,9.5800,-0.0625,0.0000,-0.0625,0.0000,0.0000,0.0000,16382.0000,165.0000,-218.0000,0.0000,-0.0578,1.0977
8433580,101287.289062,20.790001,3.140390,0.2500,0.2100,9.5800,0.0625,-0.1250,0.0625,0.0000,0.0000,0.0000,16382.0000,165.0000,-218.0000,0.0000,-0.0266,1.2376
8463215,101285.140625,20.780001,3.319318,0.2300,0.2000,9.5700,0.0000,-0.0625,0.0000,0.0000,0.0000,0.0000,16382.0000,165.0000,-218.0000,0.0000,0.0125,1.4522
8494662,101294.039062,20.790001,2.578212,0.2100,0.2000,9.5800,0.0000,-0.1250,0.0000,0.0000,0.0000,0.0000,16382.0000,165.0000,-218.0000,0.0000,-0.0633,-0.1207
8524283,101292.968750,20.780001,2.667162,0.2300,0.2100,9.5700,-0.0625,0.0000,0.0000,0.0000,0.0000,0.0000,16382.0000,165.0000,-218.0000,0.0000,-0.0715,-0.2068
8553902,101289.046875,20.780001,2.993997,0.2300,0.2100,9.5600,0.0000,-0.0625,0.0000,0.0000,0.0000,0.0000,16382.0000,165.0000,-218.0000,0.0000,-0.0245,0.5599
8585308,101285.140625,20.780001,3.319318,0.2400,0.2000,9.5700,-0.1250,-0.1250,-0.1250,0.0000,0.0000,0.0000,16382.0000,165.0000,-218.0000,0.0000,-0.0214,0.4380
8614954,101285.140625,20.780001,3.319318,0.2200,0.2100,9.5700,-0.0625,0.1250,0.0000,0.0000,0.0000,0.0000,16382.0000,165.0000,-218.0000,0.0000,0.0095,0.7708
8644553,101292.968750,20.780001,2.667162,0.2300,0.2000,9.5600,-0.0625,0.0000,0.0625,0.0000,0.0000,0.0000,16382.0000,165.0000,-218.0000,0.0000,-0.0557,-0.4387
8674183,101292.968750,20.780001,2.667162,0.2300,0.2100,9.5800,0.0000,0.1875,-0.0625,0.0000,0.0000,0.0000,16382.0000,165.0000,-218.0000,0.0000,-0.0248,0.1569
8713280,101285.140625,20.780001,3.319318,0.2500,0.2200,9.5800,-0.1250,0.0000,0.0625,0.0000,0.0000,0.0000,16382.0000,165.0000,-218.0000,0.0000,0.0121,0.6626
8743688,101281.218750,20.780001,3.645665,0.2300,0.2000,9.5900,-0.1250,0.1250,-0.0625,0.0000,0.0000,0.0000,16382.0000,165.0000,-218.0000,0.0000,0.0597,1.1778
8773754,101282.289062,20.790001,3.556707,0.2400,0.2000,9.5600,0.0000,0.2500,0.0625,0.0000,0.0000,0.0000,16382.0000,165.0000,-218.0000,0.0000,0.0722,1.0118
8805212,101291.203125,20.790001,2.814059,0.2200,0.2100,9.5700,0.0000,-0.0625,0.0000,0.0000,0.0000,0.0000,16382.0000,165.0000,-218.0000,0.0000,0.1160,1.3652
8834787,101292.968750,20.780001,2.667162,0.2300,0.2100,9.5800,0.1250,0.0625,0.1250,0.0000,0.0000,0.0000,16382.0000,165.0000,-218.0000,0.0000,0.1225,1.0537
8864404,101294.039062,20.790001,2.578212,0.2200,0.2000,9.5700,0.0625,0.0000,0.0625,0.0000,0.0000,0.0000,16382.0000,165.0000,-218.0000,0.0000,0.1153,0.6298
8895830,101285.140625,20.780001,3.319318,0.2300,0.2100,9.5700,-0.0625,0.1250,-0.1250,0.0000,0.0000,0.0000,16382.0000,165.0000,-218.0000,0.0000,0.1023,0.2452
8925442,101281.218750,20.780001,3.645665,0.2200,0.2100,9.5700,0.0000,0.1250,0.0625,0.0000,0.0000,0.0000,16382.0000,165.0000,-218.0000,0.0000,0.1219,0.4657
8955049,101291.890625,20.780001,2.757130,0.2400,0.2000,9.5800,0.0625,0.1875,-0.0625,0.0000,0.0000,0.0000,16382.0000,165.0000,-218.0000,0.0000,0.1356,0.5320
8986466,101301.882812,20.790001,1.925086,0.2300,0.2000,9.5500,0.0000,0.1250,0.0000,0.0000,0.0000,0.0000,16382.0000,165.0000,-218.0000,0.0000,0.0727,-0.5718
9016091,101277.296875,20.780001,3.972531,0.2300,0.2200,9.5900,0.0625,0.0625,0.0625,0.0000,0.0000,0.0000,16382.0000,165.0000,-218.0000,0.0000,0.1083,0.1343
9045721,101292.968750,20.780001,2.667162,0.2300,0.2100,9.5700,0.0625,0.0000,-0.0625,0.0000,0.0000,0.0000,16382.0000,165.0000,-218.0000,0.0000,0.0478,-0.8133
9075358,101292.968750,20.780001,2.667162,0.2200,0.2200,9.5900,0.0000,-0.0625,0.0625,0.0000,0.0000,0.0000,16382.0000,165.0000,-218.0000,0.0000,-0.0281,-1.7080
9114671,101301.882812,20.790001,1.925086,0.2300,0.2200,9.5700,0.0000,0.0625,0.0625,0.0000,0.0000,0.0000,16382.0000,165.0000,-218.0000,0.0000,-0.0927,-2.1645
9144992,101285.140625,20.780001,3.319318,0.2600,0.2000,9.5700,-0.0625,-0.0625,0.0000,0.0000,0.0000,0.0000,16382.0000,165.0000,-218.0000,0.0000,-0.0275,-0.5369
9175141,101289.046875,20.780001,2.993997,0.2300,0.1900,9.5900,0.1250,-0.0625,0.0625,0.0000,0.0000,0.0000,16382.0000,165.0000,-218.0000,0.0000,0.0188,0.3186
9206522,101292.968750,20.780001,2.667162,0.2300,0.2200,9.5700,-0.0625,-0.1875,-0.1250,0.0000,0.0000,0.0000,16382.0000,165.0000,-218.0000,0.0000,-0.0369,-0.6132
9236143,101285.140625,20.780001,3.319318,0.2400,0.2000,9.6000,0.0000,-0.0625,-0.0625,0.0000,0.0000,0.0000,16382.0000,165.0000,-218.0000,0.0000,-0.0927,-1.2662
9265821,101286.898438,20.770000,3.172922,0.2300,0.2000,9.5600,0.0000,0.3125,-0.0625,0.0000,0.0000,0.0000,16382.0000,165.0000,-218.0000,0.0000,-0.0583,-0.3703
9297186,101287.976562,20.780001,3.082951,0.2400,0.2100,9.5900,0.0625,0.0625,0.0000,0.0000,0.0000,0.0000,16382.0000,165.0000,-218.0000,0.0000,0.0604,1.5217
9326819,101292.968750,20.780001,2.667162,0.2200,0.2100,9.5700,-0.0625,0.1250,0.0625,0.0000,0.0000,0.0000,16382.0000,165.0000,-218.0000,0.0000,-0.0636,-0.7948
9356470,101277.296875,20.780001,3.972531,0.2200,0.2200,9.5600,-0.0625,-0.0625,0.0000,0.0000,0.0000,0.0000,16382.0000,165.0000,-218.0000,0.0000,0.0408,1.0101
9386045,101289.742188,20.770000,2.936051,0.2400,0.2000,9.5700,-0.0625,0.2500,-0.0625,0.0000,0.0000,0.0000,16382.0000,165.0000,-218.0000,0.0000,0.0624,1.0297
9417457,101292.968750,20.780001,2.667162,0.2300,0.2100,9.5900,-0.0625,0.0625,0.0625,0.0000,0.0000,0.0000,16382.0000,165.0000,-218.0000,0.0000,0.1330,1.7802
9447091,101294.039062,20.790001,2.578212,0.2400,0.2100,9.5700,-0.0625,-0.0625,-0.0625,0.0000,0.0000,0.0000,16382.0000,165.0000,-218.0000,0.0000,0.0654,0.2321
9476724,101285.140625,20.780001,3.319318,0.2500,0.2100,9.5500,0.0625,0.0000,0.0000,0.0000,0.0000,0.0000,16382.0000,165.0000,-218.0000,0.0000,0.0831,0.4281
9515982,101277.992188,20.770000,3.914579,0.2200,0.2100,9.5700,-0.1250,-0.0625,0.0625,0.0000,0.0000,0.0000,16382.0000,165.0000,-218.0000,0.0000,0.1906,1.9117
9546344,101290.820312,20.770000,2.846081,0.2300,0.2000,9.5900,-0.0625,0.0000,0.0625,0.0000,0.0000,0.0000,16382.0000,165.0000,-218.0000,0.0000,0.1278,0.3963
9576475,101289.046875,20.780001,2.993997,0.2400,0.2000,9.5600,-0.0625,0.2500,-0.1875,0.0000,0.0000,0.0000,16382.0000,165.0000,-218.0000,0.0000,0.1146,0.0798
9607903,101292.968750,20.780001,2.667162,0.2400,0.2000,9.5600,0.0000,0.1250,-0.0625,0.0000,0.0000,0.0000,16382.0000,165.0000,-218.0000,0.0000,0.0730,-0.5679
9637578,101280.140625,20.780001,3.735641,0.2300,0.2100,9.5600,0.0625,-0.1250,-0.0625,0.0000,0.0000,0.0000,16382.0000,165.0000,-218.0000,0.0000,0.1549,0.8310
9667122,101289.046875,20.780001,2.993997,0.2300,0.2000,9.5900,0.0625,-0.1875,0.0625,0.0000,0.0000,0.0000,16382.0000,165.0000,-218.0000,0.0000,0.0571,-0.8861
9698576,101289.046875,20.780001,2.993997,0.2200,0.2200,9.5800,0.0000,0.0625,-0.1250,0.0000,0.0000,0.0000,16382.0000,165.0000,-218.0000,0.0000,0.0628,-0.5333
9728161,101287.289062,20.790001,3.140390,0.2400,0.2100,9.5700,0.1250,-0.0625,0.0000,0.0000,0.0000,0.0000,16382.0000,165.0000,-218.0000,0.0000,0.1167,0.4344
9757804,101277.296875,20.780001,3.972531,0.2200,0.2000,9.5700,0.0000,-0.1250,0.0000,0.0000,0.0000,0.0000,16382.0000,165.0000,-218.0000,0.0000,0.2330,2.0480
9787424,101285.140625,20.780001,3.319318,0.2400,0.2200,9.5900,0.1250,-0.1250,-0.0625,0.0000,0.0000,0.0000,16382.0000,165.0000,-218.0000,0.0000,0.2163,1.1843
9855798,101290.132812,20.790001,2.903519,0.2200,0.2000,9.5900,0.0000,-0.1875,0.0625,0.0000,0.0000,0.0000,16382.0000,165.0000,-218.0000,0.0000,0.1200,-0.6165
9887227,101289.046875,20.780001,2.993997,0.2300,0.2100,9.5700,-0.0625,0.1875,0.0000,0.0000,0.0000,0.0000,16382.0000,165.0000,-218.0000,0.0000,0.1312,-0.2637
9917584,101285.140625,20.780001,3.319318,0.2300,0.2000,9.5900,0.1250,-0.0625,0.0000,0.0000,0.0000,0.0000,16382.0000,165.0000,-218.0000,0.0000,0.1637,0.3034
9957205,101292.968750,20.780001,2.667162,0.2300,0.2000,9.6100,0.0625,-0.1875,0.0000,0.0000,0.0000,0.0000,16382.0000,165.0000,-218.0000,0.0000,0.1601,0.1587
9987734,101292.968750,20.780001,2.667162,0.2400,0.2000,9.4900,0.0000,-0.0625,-0.0625,0.0000,0.0000,0.0000,16382.0000,165.0000,-218.0000,0.0000,0.0580,-1.4207
10018096,101289.046875,20.780001,2.993997,0.2400,0.2100,9.5600,0.1250,0.1875,0.0000,0.0000,0.0000,0.0000,16382.0000,165.0000,-218.0000,0.0000,0.0609,-0.9506
10049554,101287.289062,20.790001,3.140390,0.2300,0.2200,9.5300,0.0625,-0.1250,0.0000,0.0000,0.0000,0.0000,16382.0000,165.0000,-218.0000,0.0000,0.0791,-0.3921
10079132,101285.140625,20.780001,3.319318,0.2500,0.2000,9.5700,0.0625,-0.0625,0.0000,0.0000,0.0000,0.0000,16382.0000,165.0000,-218.0000,0.0000,0.0822,-0.2284
10108769,101286.210938,20.790001,3.229854,0.2200,0.2000,9.5800,0.1250,0.0625,0.0625,0.0000,0.0000,0.0000,16382.0000,165.0000,-218.0000,0.0000,-0.0033,-1.4427
10140205,101292.968750,20.780001,2.667162,0.2200,0.2100,9.5500,0.0000,0.0625,-0.0625,0.0000,0.0000,0.0000,16382.0000,165.0000,-218.0000,0.0000,-0.0620,-1.8901
10169838,101277.296875,20.780001,3.972531,0.2300,0.2200,9.6000,0.0625,0.0000,0.0625,0.0000,0.0000,0.0000,16382.0000,165.0000,-218.0000,0.0000,0.0318,0.0845
10199427,101282.289062,20.790001,3.556707,0.2300,0.2100,9.5700,0.1875,0.0625,0.0000,0.0000,0.0000,0.0000,16382.0000,165.0000,-218.0000,0.0000,0.0834,0.8320
10229028,101295.117188,20.790001,2.488245,0.2300,0.2200,9.5700,0.1250,-0.1250,0.1250,0.0000,0.0000,0.0000,16382.0000,165.0000,-218.0000,0.0000,0.0038,-0.6105
10269150,101286.210938,20.790001,3.229854,0.2400,0.2100,9.5800,0.0000,-0.0625,0.0000,0.0000,0.0000,0.0000,16382.0000,165.0000,-218.0000,0.0000,0.0489,0.2478
10409213,101287.289062,20.790001,3.140390,0.2200,0.2000,9.5700,0.0000,0.0625,0.0000,0.0000,0.0000,0.0000,16382.0000,165.0000,-218.0000,0.0000,0.0998,0.9370
10549217,101296.203125,20.799999,2.397772,0.2300,0.2100,9.5500,0.0625,0.0000,0.0000,0.0000,0.0000,0.0000,16382.0000,165.0000,-218.0000,0.0000,0.0651,0.1359
10804242,101289.046875,20.780001,2.993997,0.2200,0.2000,9.5600,0.0000,0.1250,0.0000,0.0000,0.0000,0.0000,16382.0000,165.0000,-218.0000,0.0000,0.0617,0.0444
10917077,101289.046875,20.780001,2.993997,0.2200,0.2000,9.6000,0.0625,-0.0625,0.0000,0.0000,0.0000,0.0000,16382.0000,165.0000,-218.0000,0.0000,0.0256,-0.5109
10950342,101278.382812,20.790001,3.882045,0.2400,0.2100,9.6000,-0.0625,-0.0625,-0.0625,0.0000,0.0000,0.0000,16382.0000,165.0000,-218.0000,0.0000,0.0665,0.2562
10981732,101289.046875,20.780001,2.993997,0.2400,0.2000,9.5700,-0.0625,-0.1875,0.0625,0.0000,0.0000,0.0000,16382.0000,165.0000,-218.0000,0.0000,0.0909,0.5448
11011361,101294.039062,20.790001,2.578212,0.2300,0.2200,9.5800,0.0000,-0.2500,0.0625,0.0000,0.0000,0.0000,16382.0000,165.0000,-218.0000,0.0000,-0.0337,-1.4878
11041334,101277.296875,20.780001,3.972531,0.2500,0.1900,9.5400,0.1250,-0.2500,-0.1250,0.0000,0.0000,0.0000,16382.0000,165.0000,-218.0000,0.0000,0.0013,-0.5158
11072759,101285.140625,20.780001,3.319318,0.2200,0.2100,9.6100,-0.0625,-0.1875,0.0000,0.0000,0.0000,0.0000,16382.0000,165.0000,-218.0000,0.0000,0.0732,0.7169
11102376,101285.140625,20.780001,3.319318,0.2300,0.2000,9.6300,0.0000,-0.2500,-0.0625,0.0000,0.0000,0.0000,16382.0000,165.0000,-218.0000,0.0000,0.0542,0.2178
11132025,101289.046875,20.780001,2.993997,0.2300,0.2200,9.5700,-0.0625,0.1250,0.0625,0.0000,0.0000,0.0000,16382.0000,165.0000,-218.0000,0.0000,0.0592,0.2264
11161827,101289.046875,20.780001,2.993997,0.2400,0.2100,9.5800,0.0000,0.1875,-0.0625,0.0000,0.0000,0.0000,16382.0000,165.0000,-218.0000,0.0000,0.1122,0.9548
11193245,101292.968750,20.780001,2.667162,0.2200,0.2100,9.6000,0.0625,0.4375,0.0000,0.0000,0.0000,0.0000,16382.0000,165.0000,-218.0000,0.0000,0.0796,0.1781
11222869,101290.132812,20.790001,2.903519,0.2300,0.2000,9.6100,-0.0625,0.6250,0.0625,0.0000,0.0000,0.0000,16382.0000,165.0000,-216.0000,0.0000,0.0509,-0.3046
11252520,101277.296875,20.780001,3.972531,0.2300,0.1900,9.5600,-0.0625,-0.0625,-0.0625,0.0000,0.0000,0.0000,16382.0000,165.0000,-216.0000,0.0000,0.0469,-0.2734
11291772,101282.289062,20.790001,3.556707,0.2500,0.2000,9.5700,0.0000,0.2500,-0.1250,0.0000,0.0000,0.0000,16382.0000,165.0000,-216.0000,0.0000,0.0919,0.4838
11322264,101269.468750,20.780001,4.624260,0.2300,0.2000,9.5700,-0.0625,-0.0625,0.0000,0.0000,0.0000,0.0000,16382.0000,165.0000,-216.0000,0.0000,0.2574,2.8206
11352404,101285.140625,20.780001,3.319318,0.2300,0.2200,9.5700,0.1250,0.0625,0.0625,0.0000,0.0000,0.0000,16382.0000,165.0000,-216.0000,0.0000,0.1921,0.9946
11383825,101290.132812,20.790001,2.903519,0.2400,0.2000,9.5700,0.0625,0.0625,0.1250,0.0000,0.0000,0.0000,16382.0000,165.0000,-216.0000,0.0000,0.1559,0.1534
11413445,101280.531250,20.799999,3.703107,0.2600,0.2100,9.5800,-0.0625,0.0625,0.0000,0.0000,0.0000,0.0000,16382.0000,165.0000,-216.0000,0.0000,0.1819,0.4970
11443055,101291.890625,20.780001,2.757130,0.2400,0.2000,9.5700,0.0000,0.1875,0.0000,0.0000,0.0000,0.0000,16382.0000,165.0000,-216.0000,0.0000,0.1564,-0.0344
11474500,101287.289062,20.790001,3.140390,0.2500,0.2100,9.6000,0.0000,0.1250,0.0000,0.0000,0.0000,0.0000,16382.0000,165.0000,-216.0000,0.0000,0.1877,0.4452
11504093,101292.968750,20.780001,2.667162,0.2400,0.2100,9.6000,-0.1250,0.1250,0.0000,0.0000,0.0000,0.0000,16382.0000,165.0000,-216.0000,0.0000,0.1930,0.3923
11533721,101285.140625,20.780001,3.319318,0.2200,0.2100,9.5800,0.0625,0.2500,-0.1250,0.0000,0.0000,0.0000,16382.0000,165.0000,-216.0000,0.0000,0.2216,0.7026
11563351,101287.289062,20.790001,3.140390,0.2500,0.2000,9.5700,0.0000,0.1875,-0.0625,0.0000,0.0000,0.0000,16382.0000,165.0000,-216.0000,0.0000,0.1271,-0.9250
11594767,101277.296875,20.780001,3.972531,0.2500,0.2100,9.4400,-0.3125,1.0625,0.0625,0.0000,0.0000,0.0000,16382.0000,165.0000,-215.0000,0.0000,0.1556,-0.2197
11624430,101283.367188,20.790001,3.466732,0.2000,0.2100,9.7300,-0.1250,0.4375,0.0000,0.0000,0.0000,0.0000,16382.0000,165.0000,-212.0000,0.0000,0.0488,-1.7558
11654019,101285.140625,20.780001,3.319318,0.2300,0.2100,9.5600,-0.1250,0.4375,0.0625,0.0000,0.0000,0.0000,16382.0000,165.0000,-212.0000,0.0000,0.0394,-1.3710
11693124,101285.140625,20.780001,3.319318,0.2300,0.2100,9.5500,0.0000,0.1875,-0.0625,0.0000,0.0000,0.0000,16382.0000,165.0000,-212.0000,0.0000,0.0745,-0.4336
11723484,101290.132812,20.790001,2.903519,0.2200,0.2000,9.5600,0.0000,0.0625,0.0000,0.0000,0.0000,0.0000,16382.0000,165.0000,-212.0000,0.0000,-0.0102,-1.5738
11753683,101289.046875,20.780001,2.993997,0.2300,0.2100,9.5800,-0.0625,0.1250,0.0625,0.0000,0.0000,0.0000,16382.0000,165.0000,-212.0000,0.0000,0.0283,-0.5239
11785042,101289.046875,20.780001,2.993997,0.2300,0.2100,9.5800,-0.0625,0.1875,0.0625,0.0000,0.0000,0.0000,16382.0000,165.0000,-212.0000,0.0000,0.0136,-0.5863
11814668,101290.132812,20.790001,2.903519,0.2200,0.2000,9.5700,-0.0625,0.0625,0.1250,0.0000,0.0000,0.0000,16382.0000,165.0000,-212.0000,0.0000,0.0391,-0.0287
11844301,101292.968750,20.780001,2.667162,0.2200,0.2100,9.5800,-0.1250,0.1875,-0.0625,0.0000,0.0000,0.0000,16382.0000,165.0000,-212.0000,0.0000,-0.0167,-0.8564
11875756,101294.039062,20.790001,2.578212,0.2500,0.2000,9.5900,0.1250,0.0000,0.0000,0.0000,0.0000,0.0000,16382.0000,165.0000,-212.0000,0.0000,-0.0450,-1.0244
11915581,101285.140625,20.780001,3.319318,0.2200,0.2200,9.5800,0.0625,-0.1250,0.0625,0.0000,0.0000,0.0000,16382.0000,165.0000,-212.0000,0.0000,-0.1103,-1.6969
11964358,101294.039062,20.790001,2.578212,0.2400,0.2200,9.5500,0.0625,0.1875,0.0625,0.0000,0.0000,0.0000,16382.0000,165.0000,-212.0000,0.0000,-0.1927,-2.4230
11994558,101285.140625,20.780001,3.319318,0.2300,0.2000,9.5800,0.0000,0.1875,0.0000,0.0000,0.0000,0.0000,16382.0000,165.0000,-212.0000,0.0000,-0.1992,-1.7937
12025961,101285.140625,20.780001,3.319318,0.2200,0.2100,9.5500,0.0000,0.1875,0.0625,0.0000,0.0000,0.0000,16382.0000,165.0000,-212.0000,0.0000,-0.1992,-1.2556
12055559,101296.890625,20.780001,2.340337,0.2300,0.1900,9.5800,-0.0625,0.1250,-0.0625,0.0000,0.0000,0.0000,16382.0000,165.0000,-212.0000,0.0000,-0.2489,-1.6257
12085206,101292.968750,20.780001,2.667162,0.2500,0.2000,9.5800,0.0000,-0.0625,-0.1250,0.0000,0.0000,0.0000,16382.0000,165.0000,-212.0000,0.0000,-0.2816,-1.6282
12124462,101285.140625,20.780001,3.319318,0.2300,0.2100,9.5700,0.0000,0.2500,0.0625,0.0000,0.0000,0.0000,16382.0000,165.0000,-212.0000,0.0000,-0.2556,-0.7494
12154992,101295.812500,20.780001,2.430302,0.2100,0.2100,9.5700,0.0000,0.0625,-0.0625,0.0000,0.0000,0.0000,16382.0000,165.0000,-212.0000,0.0000,-0.2887,-1.0214
12185140,101292.968750,20.780001,2.667162,0.2300,0.1900,9.5700,-0.1250,0.1875,0.0000,0.0000,0.0000,0.0000,16382.0000,165.0000,-212.0000,0.0000,-0.2757,-0.5193
12216530,101281.218750,20.780001,3.645665,0.2400,0.1900,9.5800,0.0625,0.1875,0.0000,0.0000,0.0000,0.0000,16382.0000,165.0000,-212.0000,0.0000,-0.1773,1.1129
12246143,101300.796875,20.780001,2.015047,0.2300,0.2100,9.5800,0.0000,0.1250,0.0625,0.0000,0.0000,0.0000,16382.0000,165.0000,-212.0000,0.0000,-0.2946,-0.9817
12275778,101292.968750,20.780001,2.667162,0.2300,0.2000,9.5700,0.0000,0.1875,-0.0625,0.0000,0.0000,0.0000,16382.0000,165.0000,-212.0000,0.0000,-0.2596,-0.1622
12307190,101292.968750,20.780001,2.667162,0.2400,0.2300,9.5700,-0.0625,0.1250,0.0000,0.0000,0.0000,0.0000,16382.0000,165.0000,-212.0000,0.0000,-0.3071,-0.8249
12336835,101294.039062,20.790001,2.578212,0.2200,0.2100,9.5500,0.0625,0.0625,0.0625,0.0000,0.0000,0.0000,16382.0000,165.0000,-212.0000,0.0000,-0.3830,-1.7161
12366419,101292.968750,20.780001,2.667162,0.2100,0.2000,9.5800,-0.0625,0.0000,-0.1250,0.0000,0.0000,0.0000,16382.0000,165.0000,-212.0000,0.0000,-0.3390,-0.5422
12396038,101289.046875,20.780001,2.993997,0.2300,0.2000,9.5700,-0.1250,-0.0625,-0.0625,0.0000,0.0000,0.0000,16382.0000,165.0000,-212.0000,0.0000,-0.3034,0.1546
12425971,101289.046875,20.780001,2.993997,0.2300,0.2000,9.5900,0.0625,-0.0625,0.0000,0.0000,0.0000,0.0000,16382.0000,165.0000,-212.0000,0.0000,-0.3479,-0.5586
12455989,101286.210938,20.790001,3.229854,0.2400,0.2100,9.5700,0.0625,0.0000,-0.0625,0.0000,0.0000,0.0000,16382.0000,165.0000,-212.0000,0.0000,-0.2726,0.7375
12486121,101298.648438,20.770000,2.193955,0.2400,0.2000,9.5600,-0.0625,-0.0625,-0.1250,0.0000,0.0000,0.0000,16382.0000,165.0000,-212.0000,0.0000,-0.3040,0.0465
12525715,101281.218750,20.780001,3.645665,0.2300,0.2000,9.5800,-0.0625,0.2500,-0.1250,0.0000,0.0000,0.0000,16382.0000,165.0000,-212.0000,0.0000,-0.2992,0.1035
12556214,101281.218750,20.780001,3.645665,0.2200,0.1900,9.6000,0.1250,0.1250,0.0625,0.0000,0.0000,0.0000,16382.0000,165.0000,-212.0000,0.0000,-0.1492,2.3228
12586354,101287.976562,20.780001,3.082951,0.2400,0.2100,9.5800,0.0625,0.0000,0.0000,0.0000,0.0000,0.0000,16382.0000,165.0000,-212.0000,0.0000,-0.1177,2.0983
12617822,101287.976562,20.780001,3.082951,0.2300,0.2000,9.5800,-0.1250,0.1250,0.0000,0.0000,0.0000,0.0000,16382.0000,165.0000,-212.0000,0.0000,-0.0583,2.3593
12647443,101289.046875,20.780001,2.993997,0.2200,0.2000,9.5600,0.0625,0.0625,-0.0625,0.0000,0.0000,0.0000,16382.0000,165.0000,-212.0000,0.0000,-0.0103,2.3728
12676998,101282.976562,20.770000,3.499265,0.2200,0.2000,9.5700,0.0000,-0.0625,0.0625,0.0000,0.0000,0.0000,16382.0000,165.0000,-212.0000,0.0000,0.0694,2.8551
12708435,101285.140625,20.780001,3.319318,0.2300,0.1900,9.5700,-0.0625,0.1875,0.0625,0.0000,0.0000,0.0000,16382.0000,165.0000,-212.0000,0.0000,0.0954,2.3890
12738063,101285.140625,20.780001,3.319318,0.2300,0.2200,9.5800,0.0625,0.0625,0.0000,0.0000,0.0000,0.0000,16382.0000,165.0000,-212.0000,0.0000,0.1214,2.0627
12767686,101290.132812,20.790001,2.903519,0.2400,0.1900,9.6000,0.0625,0.0625,0.0000,0.0000,0.0000,0.0000,16382.0000,165.0000,-212.0000,0.0000,0.0840,0.8835
12799088,101276.226562,20.780001,4.061493,0.2200,0.2000,9.5600,-0.0625,0.0625,0.0000,0.0000,0.0000,0.0000,16382.0000,165.0000,-212.0000,0.0000,0.2476,3.0723
12828709,101292.968750,20.780001,2.667162,0.2400,0.2000,9.5800,-0.0625,-0.2500,-0.0625,0.0000,0.0000,0.0000,16382.0000,165.0000,-212.0000,0.0000,0.1759,1.0745
12858327,101281.906250,20.770000,3.588223,0.2200,0.2000,9.5900,-0.1250,0.0625,0.0000,0.0000,0.0000,0.0000,16382.0000,165.0000,-212.0000,0.0000,0.1695,0.6565
12887927,101282.976562,20.770000,3.499265,0.2400,0.2000,9.5700,0.0000,0.0625,0.0625,0.0000,0.0000,0.0000,16382.0000,165.0000,-212.0000,0.0000,0.2336,1.4215
12927248,101292.968750,20.780001,2.667162,0.2400,0.2100,9.5600,-0.1250,-0.0625,-0.0625,0.0000,0.0000,0.0000,16382.0000,165.0000,-212.0000,0.0000,0.2051,0.5670
12957569,101296.890625,20.780001,2.340337,0.2300,0.2100,9.6000,0.0000,-0.0625,0.0000,0.0000,0.0000,0.0000,16382.0000,165.0000,-212.0000,0.0000,0.1510,-0.4146
12987728,101285.140625,20.780001,3.319318,0.2500,0.2000,9.5700,0.0625,-0.2500,-0.0625,0.0000,0.0000,0.0000,16382.0000,165.0000,-212.0000,0.0000,0.1407,-0.4450
13019154,101292.968750,20.780001,2.667162,0.2500,0.2100,9.5900,-0.0625,0.1875,0.0625,0.0000,0.0000,0.0000,16382.0000,165.0000,-212.0000,0.0000,0.0773,-1.2627
13048826,101287.976562,20.780001,3.082951,0.2200,0.2100,9.5800,0.0000,-0.1250,0.0000,0.0000,0.0000,0.0000,16382.0000,165.0000,-212.0000,0.0000,0.0548,-1.2212
13078429,101291.890625,20.780001,2.757130,0.2200,0.2100,9.5800,-0.0625,-0.1250,-0.1250,0.0000,0.0000,0.0000,16382.0000,165.0000,-212.0000,0.0000,0.0383,-1.1014
13109840,101291.203125,20.790001,2.814059,0.2300,0.2000,9.5800,-0.1875,-0.0625,0.1250,0.0000,0.0000,0.0000,16382.0000,165.0000,-212.0000,0.0000,-0.0763,-2.4906
13139506,101285.140625,20.780001,3.319318,0.2400,0.2100,9.5700,-0.0625,-0.1250,-0.0625,0.0000,0.0000,0.0000,16382.0000,165.0000,-212.0000,0.0000,-0.0147,-0.8189
13169106,101284.062500,20.780001,3.408783,0.2200,0.2100,9.6000,0.0000,-0.1250,0.0625,0.0000,0.0000,0.0000,16382.0000,165.0000,-212.0000,0.0000,-0.0213,-0.6732
13200506,101286.898438,20.770000,3.172922,0.2300,0.2000,9.5600,0.0625,-0.0625,0.1250,0.0000,0.0000,0.0000,16382.0000,165.0000,-212.0000,0.0000,-0.0481,-0.8726
13230127,101285.140625,20.780001,3.319318,0.2300,0.2100,9.5700,0.0625,0.0625,0.0625,0.0000,0.0000,0.0000,16382.0000,165.0000,-212.0000,0.0000,0.0171,0.3674
13259781,101296.890625,20.780001,2.340337,0.2400,0.2000,9.6100,0.0625,0.1250,-0.0625,0.0000,0.0000,0.0000,16382.0000,165.0000,-212.0000,0.0000,0.0367,0.5509
13289450,101277.296875,20.780001,3.972531,0.2300,0.2000,9.5600,0.0000,0.1875,0.0625,0.0000,0.0000,0.0000,16382.0000,165.0000,-212.0000,0.0000,0.0807,1.0447
13328503,101291.890625,20.780001,2.757130,0.2300,0.2200,9.5400,0.0000,-0.1875,0.1875,0.0000,0.0000,0.0000,16382.0000,165.0000,-212.0000,0.0000,0.0944,0.9373
13358905,101286.898438,20.770000,3.172922,0.2300,0.2300,9.5800,0.0625,0.1875,2.0625,0.0000,0.0000,0.0000,16382.0000,165.0000,-212.0000,5.0000,0.0998,0.7374
13389101,101281.218750,20.780001,3.645665,0.2600,0.1500,9.5800,0.0625,-0.0625,1.0000,0.0000,0.0000,0.0000,16382.0000,165.0000,-212.0000,13.0000,0.1738,1.6263
13420510,101284.062500,20.780001,3.408783,0.2200,0.2100,9.5700,0.0625,0.1875,0.0000,0.0000,0.0000,0.0000,16382.0000,165.0000,-212.0000,13.0000,0.2185,1.8080
13459125,101289.046875,20.780001,2.993997,0.2500,0.2000,9.5900,0.0000,0.0000,-0.0625,0.0000,0.0000,0.0000,16382.0000,165.0000,-212.0000,13.0000,0.1776,0.6529
13512853,101284.062500,20.780001,3.408783,0.2400,0.2000,9.6200,-0.0625,0.1875,-0.1875,0.0000,0.0000,0.0000,16382.0000,165.0000,-212.0000,13.0000,0.1758,0.4302
13548632,101286.898438,20.770000,3.172922,0.2300,0.2100,9.5400,0.0000,0.0625,-0.1875,0.0000,0.0000,0.0000,16382.0000,165.0000,-212.0000,13.0000,0.1639,0.1227
13579498,101292.968750,20.780001,2.667162,0.2300,0.1900,9.5700,0.0625,0.0625,0.0000,0.0000,0.0000,0.0000,16382.0000,165.0000,-212.0000,13.0000,0.1118,-0.6967
13609799,101285.140625,20.780001,3.319318,0.2500,0.2000,9.5900,0.0000,0.0625,0.0625,0.0000,0.0000,0.0000,16382.0000,165.0000,-212.0000,13.0000,0.2097,0.9808
13641162,101292.968750,20.780001,2.667162,0.2400,0.2000,9.5800,0.1250,-0.0625,0.0625,0.0000,0.0000,0.0000,16382.0000,165.0000,-212.0000,13.0000,0.0726,-1.3695
13670776,101284.750000,20.770000,3.351851,0.2200,0.2200,9.5400,0.0625,0.1250,0.0000,0.0000,0.0000,0.0000,16382.0000,165.0000,-212.0000,13.0000,0.1184,-0.2720
13700402,101292.968750,20.780001,2.667162,0.2500,0.2100,9.5800,0.0625,0.0000,0.0000,0.0000,0.0000,0.0000,16382.0000,165.0000,-212.0000,13.0000,0.0808,-0.7534
13730287,101291.890625,20.780001,2.757130,0.2300,0.2000,9.5700,0.0000,0.1250,0.0000,0.0000,0.0000,0.0000,16382.0000,165.0000,-212.0000,13.0000,-0.0146,-1.9582
13769759,101280.140625,20.780001,3.735641,0.2400,0.2000,9.5700,-0.0625,0.0000,-0.0625,0.0000,0.0000,0.0000,16382.0000,165.0000,-212.0000,13.0000,-0.0032,-1.2010
13800301,101292.968750,20.780001,2.667162,0.2300,0.1900,9.5700,0.1250,0.0000,0.0625,0.0000,0.0000,0.0000,16382.0000,165.0000,-212.0000,13.0000,-0.0164,-1.0374
13830444,101279.070312,20.770000,3.824601,0.2300,0.2000,9.6000,-0.0625,0.0000,0.0625,0.0000,0.0000,0.0000,16382.0000,165.0000,-212.0000,13.0000,-0.0110,-0.6453
13861854,101289.046875,20.780001,2.993997,0.2300,0.2000,9.5900,-0.0625,0.0000,0.0000,0.0000,0.0000,0.0000,16382.0000,165.0000,-212.0000,13.0000,-0.0354,-0.8182
13891487,101277.296875,20.780001,3.972531,0.2300,0.2000,9.5900,0.0000,0.1250,-0.0625,0.0000,0.0000,0.0000,16382.0000,165.0000,-212.0000,13.0000,0.0690,0.9937
13921161,101296.890625,20.780001,2.340337,0.2500,0.2200,9.5500,0.0625,0.0000,-0.0625,0.0000,0.0000,0.0000,16382.0000,165.0000,-212.0000,13.0000,-0.0241,-0.7015
13952554,101291.890625,20.780001,2.757130,0.2200,0.2000,9.5500,0.0625,-0.0625,0.0000,0.0000,0.0000,0.0000,16382.0000,165.0000,-212.0000,13.0000,-0.0169,-0.3831
13982186,101294.726562,20.770000,2.520776,0.2400,0.2100,9.5300,0.0625,-0.1250,0.0000,0.0000,0.0000,0.0000,16382.0000,165.0000,-212.0000,13.0000,-0.0906,-1.3728
14011809,101291.890625,20.780001,2.757130,0.2300,0.2000,9.5800,0.0000,0.0625,-0.0625,0.0000,0.0000,0.0000,16382.0000,165.0000,-212.0000,13.0000,-0.0768,-0.7549
14051534,101291.890625,20.780001,2.757130,0.2200,0.2100,9.6000,0.0000,0.0625,0.0000,0.0000,0.0000,0.0000,16382.0000,165.0000,-212.0000,13.0000,-0.0674,-0.3866
14191383,101290.820312,20.770000,2.846081,0.2300,0.2600,9.5900,0.0000,0.0000,0.1875,0.0000,0.0000,0.0000,16382.0000,165.0000,-212.0000,13.0000,-0.1694,-1.8006
14331425,101285.140625,20.780001,3.319318,0.2400,0.2000,9.5800,0.0000,-0.1875,0.8125,0.0000,0.0000,0.0000,16382.0000,165.0000,-213.0000,51.0000,-0.0976,-0.1843
14582974,101291.890625,20.780001,2.757130,0.2400,0.2100,9.5500,-0.0625,-0.1250,0.0000,0.0000,0.0000,0.0000,16382.0000,165.0000,-213.0000,54.0000,-0.1866,-1.4637
14682482,101288.656250,20.770000,3.026529,0.2300,0.2000,9.5600,-0.0625,-0.0625,0.5000,0.0000,0.0000,0.0000,16382.0000,165.0000,-213.0000,54.0000,-0.1822,-0.9588
14713180,101284.062500,20.780001,3.408783,0.2300,0.2200,9.5800,0.0000,-0.1250,0.1875,0.0000,0.0000,0.0000,16382.0000,165.0000,-213.0000,54.0000,-0.2451,-1.6146
14743377,101290.820312,20.770000,2.846081,0.2600,0.1800,9.5900,0.0000,0.0625,0.5000,0.0000,0.0000,0.0000,16382.0000,165.0000,-213.0000,55.0000,-0.1916,-0.3272
14774765,101292.968750,20.780001,2.667162,0.2400,0.2000,9.5800,0.0000,0.0625,0.1250,0.0000,0.0000,0.0000,16382.0000,165.0000,-213.0000,55.0000,-0.1839,-0.1144
14804391,101289.046875,20.780001,2.993997,0.2400,0.2000,9.5800,0.0000,0.0000,-0.0625,0.0000,0.0000,0.0000,16382.0000,165.0000,-213.0000,55.0000,-0.1301,0.7274
14833995,101288.656250,20.770000,3.026529,0.2400,0.2000,9.5700,0.0000,-0.1875,0.0625,0.0000,0.0000,0.0000,16382.0000,165.0000,-213.0000,55.0000,-0.0973,1.0011
14865407,101282.976562,20.770000,3.499265,0.2300,0.2100,9.5600,-0.0625,0.1250,-0.0625,0.0000,0.0000,0.0000,16382.0000,165.0000,-213.0000,55.0000,-0.0350,1.6352
14895022,101292.968750,20.780001,2.667162,0.2300,0.2100,9.5700,-0.0625,-0.0625,-0.0625,0.0000,0.0000,0.0000,16382.0000,165.0000,-213.0000,55.0000,-0.0250,1.2946
14924633,101282.976562,20.770000,3.499265,0.2400,0.2000,9.5900,0.0000,-0.1250,-0.0625,0.0000,0.0000,0.0000,16382.0000,165.0000,-213.0000,55.0000,-0.0237,0.9265
14956042,101282.976562,20.770000,3.499265,0.2500,0.2100,9.5800,0.0000,-0.1250,0.0000,0.0000,0.0000,0.0000,16382.0000,165.0000,-213.0000,55.0000,0.0523,1.7884
14985730,101284.750000,20.770000,3.351851,0.2400,0.2200,9.5800,0.0000,0.0000,0.0000,0.0000,0.0000,0.0000,16382.0000,165.0000,-213.0000,55.0000,0.0878,1.7841
15015313,101292.968750,20.780001,2.667162,0.2500,0.1800,9.5900,0.1250,-0.0625,-0.1250,0.0000,0.0000,0.0000,16382.0000,165.0000,-213.0000,55.0000,0.0137,0.1364
15054023,101292.968750,20.780001,2.667162,0.2500,0.1800,9.5700,-0.0625,-0.0625,-0.9375,0.0000,0.0000,0.0000,16382.0000,165.0000,-213.0000,54.0000,-0.0108,-0.2709
15084351,101290.820312,20.770000,2.846081,0.2400,0.1900,9.5800,-0.0625,0.0625,-0.5000,0.0000,0.0000,0.0000,16382.0000,165.0000,-213.0000,52.0000,0.0166,0.2207
15114503,101285.140625,20.780001,3.319318,0.2400,0.2100,9.5900,-0.1250,0.0625,-0.3750,0.0000,0.0000,0.0000,16382.0000,165.0000,-213.0000,52.0000,0.0361,0.4468
15144636,101287.976562,20.780001,3.082951,0.2400,0.2100,9.5800,-0.0625,0.0000,0.0000,0.0000,0.0000,0.0000,16382.0000,165.0000,-213.0000,52.0000,0.0417,0.3974
15176046,101291.890625,20.780001,2.757130,0.2300,0.1300,9.5700,-0.1250,0.1250,-1.8125,0.0000,0.0000,0.0000,16382.0000,165.0000,-213.0000,49.0000,-0.0325,-0.8350
15205654,101294.726562,20.770000,2.520776,0.2200,0.2100,9.5800,-0.1250,0.1875,0.0000,0.0000,0.0000,0.0000,16382.0000,165.0000,-213.0000,47.0000,-0.0413,-0.7161
15235289,101292.968750,20.780001,2.667162,0.2400,0.2100,9.5800,0.0625,-0.1250,0.1250,0.0000,0.0000,0.0000,16382.0000,165.0000,-213.0000,47.0000,-0.1114,-1.5538
15266782,101290.820312,20.770000,2.846081,0.2200,0.2000,9.5700,0.0000,0.1250,0.0625,0.0000,0.0000,0.0000,16382.0000,165.0000,-213.0000,47.0000,-0.1655,-1.8986
15296364,101291.890625,20.780001,2.757130,0.2400,0.2100,9.5600,-0.0625,0.0625,0.0000,0.0000,0.0000,0.0000,16382.0000,165.0000,-213.0000,47.0000,-0.2167,-2.0964
15325965,101282.976562,20.770000,3.499265,0.2300,0.2100,9.5500,-0.0625,-0.1250,0.1250,0.0000,0.0000,0.0000,16382.0000,165.0000,-213.0000,47.0000,-0.1371,-0.2733
15357412,101290.820312,20.770000,2.846081,0.2300,0.2100,9.5900,0.0625,0.0625,0.1875,0.0000,0.0000,0.0000,16382.0000,165.0000,-213.0000,47.0000,-0.1293,-0.0746
15387006,101290.820312,20.770000,2.846081,0.2200,0.2200,9.5900,-0.1250,0.0625,0.0625,0.0000,0.0000,0.0000,16382.0000,165.0000,-213.0000,47.0000,-0.1067,0.2857
15416686,101285.140625,20.780001,3.319318,0.2400,0.1800,9.5900,0.0625,0.1250,0.0625,0.0000,0.0000,0.0000,16382.0000,165.0000,-213.0000,47.0000,-0.1180,0.0313
15455307,101299.726562,20.780001,2.104501,0.2600,0.1900,9.5600,0.0000,0.1250,-0.0625,0.0000,0.0000,0.0000,16382.0000,165.0000,-213.0000,47.0000,-0.1945,-1.1252
15485718,101292.578125,20.770000,2.699692,0.2400,0.2000,9.5800,-0.1250,-0.1250,0.1250,0.0000,0.0000,0.0000,16382.0000,165.0000,-213.0000,47.0000,-0.1813,-0.5900
15515843,101298.648438,20.770000,2.193955,0.2400,0.2000,9.5800,-0.0625,0.0000,0.1250,0.0000,0.0000,0.0000,16382.0000,165.0000,-213.0000,47.0000,-0.1897,-0.5388
15547191,101291.500000,20.760000,2.789660,0.2400,0.2100,9.5700,-0.0625,-0.0625,0.0625,0.0000,0.0000,0.0000,16382.0000,165.0000,-213.0000,47.0000,-0.1733,-0.1321
15576832,101280.828125,20.770000,3.678199,0.2500,0.2100,9.5700,0.1250,-0.0625,0.0625,0.0000,0.0000,0.0000,16382.0000,165.0000,-213.0000,47.0000,-0.0955,1.0749
15606449,101290.820312,20.770000,2.846081,0.2300,0.2000,9.5800,-0.0625,-0.1250,0.0625,0.0000,0.0000,0.0000,16382.0000,165.0000,-213.0000,47.0000,-0.0801,0.9839
15636321,101275.148438,20.770000,4.151473,0.2400,0.2000,9.5900,-0.0625,0.0000,0.0000,0.0000,0.0000,0.0000,16382.0000,165.0000,-213.0000,47.0000,-0.0446,1.2217
15678013,101286.898438,20.770000,3.172922,0.2500,0.1900,9.5900,0.0625,0.0625,0.0000,0.0000,0.0000,0.0000,16382.0000,165.0000,-213.0000,47.0000,-0.0089,1.3894
15726382,101280.828125,20.770000,3.678199,0.2300,0.2000,9.5700,0.0000,0.1250,0.0625,0.0000,0.0000,0.0000,16382.0000,165.0000,-213.0000,47.0000,0.0541,1.9174
15756735,101279.757812,20.760000,3.767159,0.2400,0.2000,9.5600,0.0000,0.0625,0.0625,0.0000,0.0000,0.0000,16382.0000,165.0000,-213.0000,47.0000,0.0905,1.8894
15788143,101275.843750,20.760000,4.093520,0.2300,0.2000,9.5500,0.0000,0.1875,-0.0625,0.0000,0.0000,0.0000,16382.0000,165.0000,-213.0000,47.0000,0.2609,3.8782
15817757,101287.593750,20.760000,3.114974,0.2500,0.2000,9.5900,-0.0625,0.1250,0.1250,0.0000,0.0000,0.0000,16382.0000,165.0000,-213.0000,47.0000,0.2953,3.2303
15847386,101290.820312,20.770000,2.846081,0.2300,0.2000,9.5800,0.0625,0.1250,0.1250,0.0000,0.0000,0.0000,16382.0000,165.0000,-213.0000,47.0000,0.3783,3.5063
15886665,101289.046875,20.780001,2.993997,0.2500,0.1900,9.5700,-0.0625,0.1875,0.0000,0.0000,0.0000,0.0000,16382.0000,165.0000,-213.0000,47.0000,0.3922,2.6628
15917132,101288.656250,20.770000,3.026529,0.2300,0.2100,9.5600,0.1250,-0.0625,0.0625,0.0000,0.0000,0.0000,16382.0000,165.0000,-213.0000,47.0000,0.3430,1.1259
15947275,101288.656250,20.770000,3.026529,0.2400,0.2000,9.5800,0.0000,-0.1250,-0.0625,0.0000,0.0000,0.0000,16382.0000,165.0000,-213.0000,47.0000,0.3604,1.0490
15978749,101298.648438,20.770000,2.193955,0.2500,0.2000,9.5600,-0.1250,-0.1250,0.0625,0.0000,0.0000,0.0000,16382.0000,165.0000,-213.0000,47.0000,0.2002,-1.6684
16008327,101287.593750,20.760000,3.114974,0.2500,0.2100,9.5900,0.0000,-0.2500,0.0625,0.0000,0.0000,0.0000,16382.0000,165.0000,-213.0000,47.0000,0.1789,-1.4872
16037949,101291.500000,20.760000,2.789660,0.2300,0.2100,9.5900,-0.1250,0.0625,0.0625,0.0000,0.0000,0.0000,16382.0000,165.0000,-213.0000,47.0000,0.0894,-2.3836
16069369,101283.671875,20.760000,3.441316,0.2300,0.2000,9.5600,0.0000,-0.0625,-0.0625,0.0000,0.0000,0.0000,16382.0000,165.0000,-213.0000,47.0000,0.0384,-2.4334
16099001,101290.429688,20.760000,2.878613,0.2300,0.2000,9.5700,0.0000,-0.0625,0.0000,0.0000,0.0000,0.0000,16382.0000,165.0000,-213.0000,47.0000,-0.0855,-3.5622
16128603,101289.742188,20.770000,2.936051,0.2400,0.1900,9.5700,-0.0625,0.0625,-0.0625,0.0000,0.0000,0.0000,16382.0000,165.0000,-213.0000,47.0000,-0.1070,-2.8156
16158219,101288.656250,20.770000,3.026529,0.2500,0.2000,9.5700,-0.0625,-0.1250,0.0625,0.0000,0.0000,0.0000,16382.0000,165.0000,-213.0000,47.0000,-0.0926,-1.7544
16189665,101281.906250,20.770000,3.588223,0.2200,0.2000,9.5700,-0.1250,-0.0625,0.0625,0.0000,0.0000,0.0000,16382.0000,165.0000,-213.0000,47.0000,-0.0385,-0.4174
16219299,101284.750000,20.770000,3.351851,0.2900,0.0900,9.6100,-0.0625,-0.2500,-0.1250,0.0000,0.0000,0.0000,16382.0000,165.0000,-213.0000,47.0000,-0.0179,0.0174
16248925,101282.593750,20.760000,3.531290,0.2100,0.1700,9.5700,-0.0625,-0.2500,0.0000,0.0000,0.0000,0.0000,16382.0000,165.0000,-213.0000,45.0000,0.0225,0.6179
16290275,101289.742188,20.770000,2.936051,0.2500,0.2100,9.5800,-0.1250,0.1250,-0.3750,0.0000,0.0000,0.0000,16382.0000,165.0000,-213.0000,44.0000,0.1062,1.6875
16319925,101280.828125,20.770000,3.678199,0.2500,0.2000,9.5700,0.0000,-0.1875,-0.3125,0.0000,0.0000,0.0000,16382.0000,165.0000,-213.0000,44.0000,0.1459,1.7764
16349522,101280.828125,20.770000,3.678199,0.2200,0.2200,9.5900,0.0000,-0.1250,-0.1250,0.0000,0.0000,0.0000,16382.0000,165.0000,-213.0000,44.0000,0.2145,2.2730
16380949,101275.148438,20.770000,4.151473,0.2600,0.2100,9.6100,0.0000,0.0000,0.0000,0.0000,0.0000,0.0000,16382.0000,165.0000,-213.0000,44.0000,0.2623,2.3091
16410558,101290.820312,20.770000,2.846081,0.2100,0.1000,9.5900,-0.1250,-0.0625,-0.5625,0.0000,0.0000,0.0000,16382.0000,165.0000,-213.0000,44.0000,0.2627,1.6217
16440189,101290.820312,20.770000,2.846081,0.2300,0.2000,9.5500,-0.0625,0.0625,-0.1250,0.0000,0.0000,0.0000,16382.0000,165.0000,-213.0000,42.0000,0.2668,1.1962
16471672,101290.820312,20.770000,2.846081,0.3300,0.2000,9.5500,-0.0625,0.1250,0.1250,0.0000,0.0000,0.0000,16382.0000,165.0000,-213.0000,42.0000,0.2451,0.5130
16501299,101290.820312,20.770000,2.846081,0.2400,0.2400,9.5800,0.0000,0.0000,-0.0625,0.0000,0.0000,0.0000,16382.0000,165.0000,-213.0000,42.0000,0.1840,-0.5582
16530873,101274.078125,20.770000,4.240437,0.2300,0.2200,9.5800,0.0000,0.0000,1.3125,0.0000,0.0000,0.0000,16382.0000,165.0000,-213.0000,46.0000,0.2580,0.7198
16560525,101279.757812,20.760000,3.767159,0.2500,0.1800,9.5800,0.0000,0.0000,1.4375,0.0000,0.0000,0.0000,16382.0000,165.0000,-213.0000,51.0000,0.2733,0.7331
16591907,101289.742188,20.770000,2.936051,0.2400,0.2000,9.5700,0.0625,0.0625,0.5000,0.0000,0.0000,0.0000,16382.0000,165.0000,-213.0000,54.0000,0.2679,0.4325
16621545,101297.570312,20.770000,2.283919,0.2400,0.1900,9.5800,0.0000,-0.2500,0.5000,0.0000,0.0000,0.0000,16382.0000,165.0000,-213.0000,54.0000,0.1362,-1.6737
16651164,101294.726562,20.770000,2.520776,0.2700,0.2100,9.5600,0.0000,-0.1250,0.5000,0.0000,0.0000,0.0000,16382.0000,165.0000,-213.0000,55.0000,0.0269,-2.8101
16689624,101290.429688,20.760000,2.878613,0.2500,0.1900,9.5800,0.0000,-0.1875,0.1250,0.0000,0.0000,0.0000,16382.0000,165.0000,-213.0000,55.0000,-0.0915,-3.7442
16719860,101290.820312,20.770000,2.846081,0.2500,0.2100,9.5700,-0.0625,0.0000,-0.1250,0.0000,0.0000,0.0000,16382.0000,165.0000,-213.0000,55.0000,-0.0868,-2.5499
16749933,101288.656250,20.770000,3.026529,0.2600,0.2100,9.5600,0.0000,0.0000,-0.0625,0.0000,0.0000,0.0000,16382.0000,165.0000,-213.0000,55.0000,-0.0741,-1.5950
16781907,101284.750000,20.770000,3.351851,0.2400,0.2200,9.5800,-0.0625,-0.1250,-0.0625,0.0000,0.0000,0.0000,16382.0000,165.0000,-213.0000,55.0000,-0.0402,-0.6072
16811970,101288.656250,20.770000,3.026529,0.2200,0.1900,9.5800,0.0000,0.0000,-0.0625,0.0000,0.0000,0.0000,16382.0000,165.0000,-213.0000,55.0000,-0.0293,-0.2622
16842088,101286.898438,20.770000,3.172922,0.2300,0.2000,9.5400,0.0000,-0.2500,0.0000,0.0000,0.0000,0.0000,16382.0000,165.0000,-213.0000,55.0000,-0.1426,-1.8828
16878451,101288.656250,20.770000,3.026529,0.2200,0.1300,9.5600,0.0000,-0.3125,0.0000,0.0000,0.0000,0.0000,16382.0000,165.0000,-213.0000,55.0000,-0.2221,-2.5098
16910224,101279.757812,20.760000,3.767159,0.2300,0.2200,9.5900,0.0625,-0.0625,0.0000,0.0000,0.0000,0.0000,16382.0000,165.0000,-213.0000,54.0000,-0.1443,-0.5905
16940552,101284.062500,20.780001,3.408783,0.2400,0.2000,9.5800,-0.0625,-0.0625,0.0000,0.0000,0.0000,0.0000,16382.0000,165.0000,-213.0000,54.0000,-0.0431,1.1051
16972482,101278.679688,20.760000,3.857136,0.2400,0.2100,9.5800,0.0625,-0.0625,0.0000,0.0000,0.0000,0.0000,16382.0000,165.0000,-213.0000,54.0000,0.0703,2.4748
17002562,101288.656250,20.770000,3.026529,0.2300,0.2000,9.5900,0.0000,0.0000,0.0000,0.0000,0.0000,0.0000,16382.0000,165.0000,-213.0000,54.0000,0.0910,2.0421
17032654,101285.820312,20.770000,3.262386,0.2400,0.2100,9.5800,-0.1250,0.1250,-0.0625,0.0000,0.0000,0.0000,16382.0000,165.0000,-213.0000,54.0000,0.1095,1.7065
17070963,101284.062500,20.780001,3.408783,0.2300,0.2000,9.5800,0.0000,-0.2500,0.0625,0.0000,0.0000,0.0000,16382.0000,165.0000,-213.0000,54.0000,0.1335,1.5552
17131430,101285.429688,20.750000,3.294918,0.2400,0.2100,9.5700,0.0000,0.0625,0.0000,0.0000,0.0000,0.0000,16382.0000,165.0000,-213.0000,54.0000,0.1058,0.6730
17161536,101288.656250,20.770000,3.026529,0.2200,0.2000,9.5500,0.0000,-0.3750,0.0000,0.0000,0.0000,0.0000,16382.0000,165.0000,-213.0000,54.0000,0.1010,0.4000
17191560,101287.593750,20.760000,3.114974,0.2500,0.2100,9.6000,0.0000,0.1250,-0.0625,0.0000,0.0000,0.0000,16382.0000,165.0000,-213.0000,54.0000,0.1065,0.3621
17223402,101290.429688,20.760000,2.878613,0.2700,0.2000,9.5500,0.0000,0.1875,-0.0625,0.0000,0.0000,0.0000,16382.0000,165.0000,-213.0000,54.0000,0.0911,0.0218
17253515,101287.593750,20.760000,3.114974,0.2400,0.2100,9.5800,0.0625,-0.1875,0.0625,0.0000,0.0000,0.0000,16382.0000,165.0000,-213.0000,54.0000,0.0466,-0.6521
17283618,101296.500000,20.770000,2.372866,0.2500,0.2100,9.5700,-0.0625,0.0000,-0.0625,0.0000,0.0000,0.0000,16382.0000,165.0000,-213.0000,54.0000,-0.0410,-1.7703
17319980,101296.500000,20.770000,2.372866,0.2200,0.1900,9.5700,0.0000,-0.1250,-0.1250,0.0000,0.0000,0.0000,16382.0000,165.0000,-213.0000,54.0000,-0.1633,-3.0740
17351532,101292.578125,20.770000,2.699692,0.2400,0.1800,9.5900,0.1250,0.0000,0.0625,0.0000,0.0000,0.0000,16382.0000,165.0000,-213.0000,50.0000,-0.1747,-2.3218
17381945,101294.343750,20.760000,2.552797,0.2700,0.2400,9.5800,0.0625,-0.1875,-0.8750,0.0000,0.0000,0.0000,16382.0000,165.0000,-213.0000,49.0000,-0.2148,-2.2274
17413893,101287.593750,20.760000,3.114974,0.2200,0.2000,9.5400,0.0000,-0.0625,-0.5625,0.0000,0.0000,0.0000,16382.0000,165.0000,-213.0000,49.0000,-0.2442,-1.9999
17443954,101290.429688,20.760000,2.878613,0.2400,0.2100,9.6000,-0.1875,0.0000,-0.4375,0.0000,0.0000,0.0000,16382.0000,165.0000,-213.0000,48.0000,-0.2865,-2.0342
17474116,101282.593750,20.760000,3.531290,0.2700,0.2200,9.6000,-0.0625,0.0625,-0.3750,0.0000,0.0000,0.0000,16382.0000,165.0000,-213.0000,48.0000,-0.2467,-0.8280
17512147,101282.593750,20.760000,3.531290,0.0300,0.4300,9.5800,0.0625,-0.0625,-0.5625,0.0000,0.0000,0.0000,16382.0000,165.0000,-213.0000,48.0000,-0.2152,-0.1065
17542473,101293.656250,20.770000,2.609725,0.2300,0.2100,9.5700,0.1875,-0.0625,0.6250,0.0000,0.0000,0.0000,16382.0000,165.0000,-213.0000,50.0000,-0.2338,-0.3529
17572586,101290.429688,20.760000,2.878613,0.2300,0.1900,9.5700,-0.0625,-0.1250,0.6250,0.0000,0.0000,0.0000,16382.0000,165.0000,-213.0000,52.0000,-0.2711,-0.8069
17602696,101274.757812,20.760000,4.184008,0.2400,0.1900,9.5800,-0.1250,-0.0625,0.3750,0.0000,0.0000,0.0000,16382.0000,165.0000,-213.0000,53.0000,-0.1113,1.8311
17634641,101282.593750,20.760000,3.531290,0.2300,0.2100,9.5800,0.0625,-0.1250,0.0625,0.0000,0.0000,0.0000,16382.0000,165.0000,-213.0000,53.0000,-0.0103,2.7969
17664720,101287.593750,20.760000,3.114974,0.2300,0.2100,9.5800,-0.0625,0.1250,0.0000,0.0000,0.0000,0.0000,16382.0000,165.0000,-213.0000,53.0000,0.0377,2.6787
17694819,101288.656250,20.770000,3.026529,0.2200,0.1900,9.5800,0.0000,-0.1875,-0.0625,0.0000,0.0000,0.0000,16382.0000,165.0000,-213.0000,53.0000,0.0821,2.5413
17726766,101294.343750,20.760000,2.552797,0.2400,0.2000,9.5700,-0.1250,-0.3750,0.0000,0.0000,0.0000,0.0000,16382.0000,165.0000,-213.0000,53.0000,0.0336,1.0506
17760642,101287.593750,20.760000,3.114974,0.2300,0.2100,9.5600,-0.0625,-0.1875,0.0000,0.0000,0.0000,0.0000,16382.0000,165.0000,-213.0000,53.0000,0.0554,1.0634
17792940,101299.343750,20.760000,2.136521,0.2300,0.2100,9.5800,0.0000,-0.1875,0.1250,0.0000,0.0000,0.0000,16382.0000,165.0000,-213.0000,53.0000,-0.0550,-0.9122
17833697,101295.421875,20.760000,2.462831,0.2500,0.2000,9.5700,0.0000,-0.0625,0.1250,0.0000,0.0000,0.0000,16382.0000,165.0000,-213.0000,53.0000,-0.1441,-1.9745
17973542,101286.507812,20.760000,3.205454,0.2700,0.2400,9.5500,0.1250,-0.1250,-0.8125,0.0000,0.0000,0.0000,16382.0000,165.0000,-213.0000,53.0000,-0.0780,-0.3908
18113669,101285.429688,20.750000,3.294918,0.2300,0.2000,9.5800,0.0000,-0.2500,0.0000,0.0000,0.0000,0.0000,16382.0000,165.0000,-213.0000,52.0000,-0.0435,0.2432
18365304,101286.507812,20.760000,3.205454,0.2300,0.2000,9.5900,0.1250,-0.1875,0.0625,0.0000,0.0000,0.0000,16382.0000,165.0000,-213.0000,52.0000,-0.1319,-1.1558
18464612,101286.507812,20.760000,3.205454,0.2300,0.2000,9.5900,0.0000,-0.2500,0.0000,0.0000,0.0000,0.0000,16382.0000,165.0000,-213.0000,52.0000,-0.1550,-1.1560
18495428,101301.101562,20.750000,1.990142,0.2500,0.1900,9.5600,0.0000,0.0625,-0.0625,0.0000,0.0000,0.0000,16382.0000,165.0000,-213.0000,52.0000,-0.2243,-1.8480
18527336,101294.343750,20.760000,2.552797,0.2200,0.2000,9.5600,-0.0625,0.0000,0.0625,0.0000,0.0000,0.0000,16382.0000,165.0000,-213.0000,52.0000,-0.2658,-1.9162
18557428,101289.351562,20.750000,2.968582,0.2600,0.2100,9.5700,0.0000,-0.1250,-0.0625,0.0000,0.0000,0.0000,16382.0000,165.0000,-213.0000,52.0000,-0.2267,-0.7544
18587525,101274.757812,20.760000,4.184008,0.2300,0.1800,9.5700,0.0625,0.0000,-0.0625,0.0000,0.0000,0.0000,16382.0000,165.0000,-213.0000,52.0000,-0.1465,0.6741
18617611,101283.671875,20.760000,3.441316,0.2300,0.2100,9.5800,0.0000,0.0625,0.0625,0.0000,0.0000,0.0000,16382.0000,165.0000,-213.0000,52.0000,-0.0280,2.2505
18652810,101282.593750,20.760000,3.531290,0.2500,0.2200,9.5600,0.0000,0.0000,0.0625,0.0000,0.0000,0.0000,16382.0000,165.0000,-213.0000,52.0000,0.0931,3.3908
18685681,101291.500000,20.760000,2.789660,0.2400,0.1900,9.5800,-0.1875,0.0000,-0.1250,0.0000,0.0000,0.0000,16382.0000,165.0000,-213.0000,52.0000,0.0710,2.0431
18716103,101286.507812,20.760000,3.205454,0.2400,0.2200,9.5600,0.0625,0.0625,0.0000,0.0000,0.0000,0.0000,16382.0000,165.0000,-213.0000,52.0000,0.0567,1.2151
18747974,101286.507812,20.760000,3.205454,0.2500,0.1900,9.5600,0.1250,0.0000,-0.1250,0.0000,0.0000,0.0000,16382.0000,165.0000,-213.0000,52.0000,0.0383,0.5741
18778082,101288.656250,20.770000,3.026529,0.2500,0.2200,9.5900,0.0625,-0.1875,-0.0625,0.0000,0.0000,0.0000,16382.0000,165.0000,-213.0000,52.0000,0.0103,-0.0182
18808181,101289.351562,20.750000,2.968582,0.2600,0.2200,9.5500,0.0000,-0.1250,0.0000,0.0000,0.0000,0.0000,16382.0000,165.0000,-213.0000,52.0000,0.1063,1.4279
18846456,101286.507812,20.760000,3.205454,0.2400,0.2100,9.5500,-0.0625,0.0000,-0.0625,0.0000,0.0000,0.0000,16382.0000,165.0000,-213.0000,52.0000,0.1644,1.8707
18876734,101282.593750,20.760000,3.531290,0.2400,0.2000,9.5500,0.1250,0.0000,0.0000,0.0000,0.0000,0.0000,16382.0000,165.0000,-213.0000,52.0000,0.2106,2.0021
18906794,101286.507812,20.760000,3.205454,0.2400,0.2000,9.5800,-0.1875,0.0000,0.0625,0.0000,0.0000,0.0000,16382.0000,165.0000,-213.0000,52.0000,0.1156,-0.0224
18938698,101286.507812,20.760000,3.205454,0.2300,0.2000,9.5700,0.0625,-0.0625,0.0625,0.0000,0.0000,0.0000,16382.0000,165.0000,-213.0000,52.0000,0.0885,-0.4232
18968790,101289.351562,20.750000,2.968582,0.2400,0.2100,9.5800,-0.1250,-0.1250,0.0625,0.0000,0.0000,0.0000,16382.0000,165.0000,-213.0000,52.0000,0.0363,-1.0790
18998884,101286.507812,20.760000,3.205454,0.2400,0.2100,9.5600,0.0000,-0.0625,0.0000,0.0000,0.0000,0.0000,16382.0000,165.0000,-213.0000,52.0000,0.0743,-0.1853
19028968,101293.273438,20.750000,2.641747,0.2500,0.2000,9.5900,0.1250,0.0000,-0.0625,0.0000,0.0000,0.0000,16382.0000,165.0000,-213.0000,52.0000,0.0404,-0.6376
19064732,101294.343750,20.760000,2.552797,0.2400,0.2200,9.5900,0.1250,0.0000,-0.1250,0.0000,0.0000,0.0000,16382.0000,165.0000,-213.0000,52.0000,-0.0077,-1.1685
19097008,101291.500000,20.760000,2.789660,0.2300,0.2100,9.5600,0.0000,-0.0625,0.0625,0.0000,0.0000,0.0000,16382.0000,165.0000,-213.0000,52.0000,-0.0101,-0.8530
19127437,101285.429688,20.750000,3.294918,0.2400,0.2000,9.5800,0.0625,-0.2500,-0.0625,0.0000,0.0000,0.0000,16382.0000,165.0000,-213.0000,52.0000,0.0172,-0.1881
19159317,101286.507812,20.760000,3.205454,0.2400,0.2000,9.5900,0.0000,0.1250,0.0000,0.0000,0.0000,0.0000,16382.0000,165.0000,-213.0000,52.0000,0.0183,-0.1146
19189421,101282.593750,20.760000,3.531290,0.2500,0.1900,9.5900,0.0000,0.1250,0.0625,0.0000,0.0000,0.0000,16382.0000,165.0000,-213.0000,52.0000,0.0159,-0.1170
19219523,101294.343750,20.760000,2.552797,0.2400,0.1900,9.5900,-0.0625,0.0625,-0.0625,0.0000,0.0000,0.0000,16382.0000,165.0000,-213.0000,52.0000,-0.0345,-0.8382
19257617,101287.593750,20.760000,3.114974,0.2600,0.2000,9.6000,-0.0625,0.1875,0.0625,0.0000,0.0000,0.0000,16382.0000,165.0000,-213.0000,52.0000,-0.0453,-0.7490
19287948,101296.500000,20.770000,2.372866,0.2300,0.2000,9.5800,-0.0625,0.0625,0.0000,0.0000,0.0000,0.0000,16382.0000,165.0000,-213.0000,52.0000,-0.0901,-1.1953
19318016,101278.679688,20.760000,3.857136,0.2300,0.2100,9.5900,0.0000,0.0000,-0.1250,0.0000,0.0000,0.0000,16382.0000,165.0000,-213.0000,52.0000,-0.0445,-0.1527
19349948,101282.593750,20.760000,3.531290,0.2500,0.2100,9.5400,0.0000,0.1250,-0.0625,0.0000,0.0000,0.0000,16382.0000,165.0000,-213.0000,52.0000,0.0362,1.1025
19380021,101284.750000,20.770000,3.351851,0.2500,0.2000,9.5700,0.0000,0.0625,-0.0625,0.0000,0.0000,0.0000,16382.0000,165.0000,-213.0000,52.0000,0.0965,1.6767
19420324,101292.578125,20.770000,2.699692,0.2400,0.2200,9.5900,0.0000,-0.1250,0.0625,0.0000,0.0000,0.0000,16382.0000,165.0000,-213.0000,52.0000,0.0809,0.9407
19471069,101287.593750,20.760000,3.114974,0.2500,0.1900,9.5600,-0.0625,0.0625,0.0625,0.0000,0.0000,0.0000,16382.0000,165.0000,-213.0000,52.0000,0.0546,0.2640
19501716,101295.421875,20.760000,2.462831,0.2300,0.2100,9.6000,0.0000,0.3125,-0.2500,0.0000,0.0000,0.0000,16382.0000,165.0000,-213.0000,52.0000,-0.0178,-0.9022
19531750,101282.593750,20.760000,3.531290,0.2300,0.2100,9.5800,0.0000,0.0625,-0.1250,0.0000,0.0000,0.0000,16382.0000,165.0000,-213.0000,52.0000,-0.0261,-0.7564
19561851,101287.593750,20.760000,3.114974,0.2300,0.2200,9.5800,-0.0625,0.0625,0.0000,0.0000,0.0000,0.0000,16382.0000,165.0000,-213.0000,52.0000,0.0253,0.2429
19597925,101290.429688,20.760000,2.878613,0.2600,0.2100,9.5900,0.0000,0.0000,0.0000,0.0000,0.0000,0.0000,16382.0000,165.0000,-213.0000,52.0000,0.0148,0.0113
19628754,101284.359375,20.750000,3.384383,0.2400,0.2100,9.5900,0.0000,0.0625,0.0000,0.0000,0.0000,0.0000,16382.0000,165.0000,-213.0000,52.0000,0.1189,1.5692
19659020,101294.343750,20.760000,2.552797,0.2500,0.1900,9.5700,0.1250,-0.0625,0.1250,0.0000,0.0000,0.0000,16382.0000,165.0000,-213.0000,52.0000,-0.0104,-0.8410
19698651,101280.828125,20.770000,3.678199,0.2400,0.2100,9.6000,0.0625,0.0625,0.0000,0.0000,0.0000,0.0000,16382.0000,165.0000,-213.0000,52.0000,-0.0117,-0.6082
19729177,101295.421875,20.760000,2.462831,0.2400,0.1900,9.5800,-0.0625,0.0000,0.0625,0.0000,0.0000,0.0000,16382.0000,165.0000,-213.0000,52.0000,-0.0662,-1.2429
19759327,101279.070312,20.770000,3.824601,0.2400,0.2000,9.5800,0.0000,-0.1875,0.0625,0.0000,0.0000,0.0000,16382.0000,165.0000,-213.0000,52.0000,0.0404,0.7293
19791272,101295.421875,20.760000,2.462831,0.2400,0.2000,9.5700,-0.0625,0.0625,0.0625,0.0000,0.0000,0.0000,16382.0000,165.0000,-213.0000,52.0000,-0.0118,-0.2720
19821382,101286.507812,20.760000,3.205454,0.2300,0.2000,9.5800,-0.0625,-0.0625,0.0000,0.0000,0.0000,0.0000,16382.0000,165.0000,-213.0000,52.0000,0.0589,0.8698
19851531,101287.593750,20.760000,3.114974,0.0700,-0.2800,9.5500,0.0000,0.1250,-1.5000,0.0000,0.0000,0.0000,16382.0000,163.0000,-212.0000,50.0000,0.0060,-0.1842
19884700,101288.656250,20.770000,3.026529,0.2000,0.1400,9.5500,0.0000,0.1250,-0.0625,0.0000,0.0000,0.0000,16382.0000,163.0000,-212.0000,44.0000,-0.0010,-0.2351
19918969,101291.500000,20.760000,2.789660,0.1700,0.2400,9.5600,0.0000,0.2500,0.9375,0.0000,0.0000,0.0000,16382.0000,164.0000,-211.0000,47.0000,-0.0230,-0.4939
19949855,101286.507812,20.760000,3.205454,0.1200,0.0100,9.6100,-0.1250,2.9375,1.3750,0.0000,0.0000,0.0000,16382.0000,163.0000,-204.0000,54.0000,-0.0557,-0.8369
19980021,101284.359375,20.750000,3.384383,0.4700,0.3100,10.9600,-1.5000,10.8750,12.4375,0.0000,0.0000,0.0000,16382.0000,157.0000,-175.0000,76.0000,0.0238,0.6078
20011954,101292.578125,20.770000,2.699692,-0.4700,-0.8700,9.2900,1.8750,8.8125,12.2500,0.0000,0.0000,0.0000,16382.0000,152.0000,-145.0000,126.0000,-0.0621,-0.8637
20042073,101294.343750,20.760000,2.552797,1.0100,0.1000,9.9500,-8.2500,8.7500,21.5625,0.0000,0.0000,0.0000,16382.0000,150.0000,-110.0000,211.0000,-0.0401,-0.2738
20072146,101282.976562,20.770000,3.499265,-0.1200,-0.1700,9.5400,-29.0625,11.2500,9.4375,0.0000,0.0000,0.0000,16382.0000,38.0000,-70.0000,264.0000,-0.0785,-0.7678
20110255,101275.843750,20.760000,4.093520,-0.6100,-0.4000,10.6800,-9.8125,47.8125,-24.2500,0.0000,0.0000,0.0000,16382.0000,-50.0000,101.0000,221.0000,0.0425,1.2775
20140534,101276.921875,20.770000,4.003541,-1.1300,1.2700,12.5800,0.5625,71.5000,-18.5625,0.0000,0.0000,0.0000,16379.0000,-112.0000,375.0000,116.0000,0.0933,1.6562
20170641,101292.578125,20.770000,2.699692,-1.3000,0.5700,15.1500,5.9375,26.0625,5.8125,0.0000,0.0000,0.0000,16374.0000,-75.0000,563.0000,109.0000,0.0572,0.6171
20202587,101278.679688,20.760000,3.857136,-1.4400,-0.5300,12.2200,15.3125,-39.6250,10.0625,0.0000,0.0000,0.0000,16376.0000,-55.0000,486.0000,155.0000,0.1468,1.7759
20232658,101288.656250,20.770000,3.026529,0.3600,0.1500,10.0600,74.5625,-44.6875,3.7500,0.0000,0.0000,0.0000,16380.0000,202.0000,268.0000,176.0000,0.1788,1.7229
20262762,101286.507812,20.760000,3.205454,0.2700,0.7200,11.9900,74.0625,-2.1250,-25.9375,0.0000,0.0000,0.0000,16375.0000,492.0000,219.0000,103.0000,0.1853,1.3038
20298888,101286.507812,20.760000,3.205454,-0.6700,0.4100,14.0500,49.1250,-0.9375,-58.2500,0.0000,0.0000,0.0000,16364.0000,765.0000,238.0000,-93.0000,0.1591,0.5195
20330789,101288.656250,20.770000,3.026529,0.1600,1.9500,12.2000,41.7500,-52.0000,-43.6250,0.0000,0.0000,0.0000,16350.0000,972.0000,20.0000,-410.0000,0.1953,0.9076
20361235,101279.757812,20.760000,3.767159,0.8400,1.6300,10.5700,-0.7500,-51.6875,-24.1875,0.0000,0.0000,0.0000,16345.0000,964.0000,-209.0000,-554.0000,0.3055,2.2883
20393138,101290.429688,20.760000,2.878613,0.1900,0.3100,10.1200,-26.1250,-46.1875,-7.5625,0.0000,0.0000,0.0000,16346.0000,854.0000,-388.0000,-614.0000,0.2464,0.7152
20423247,101283.671875,20.760000,3.441316,1.1700,-0.4900,8.6400,-10.5625,-46.0000,-22.1875,0.0000,0.0000,0.0000,16340.0000,778.0000,-582.0000,-694.0000,0.1717,-0.6195
20453383,101296.500000,20.770000,2.372866,0.8200,-1.3700,8.6300,-2.4375,-23.9375,-38.6250,0.0000,0.0000,0.0000,16330.0000,760.0000,-703.0000,-833.0000,0.0253,-2.6299
20491513,101286.507812,20.760000,3.205454,1.0100,0.0400,8.5100,-5.6250,-3.1250,-57.5000,0.0000,0.0000,0.0000,16310.0000,740.0000,-760.0000,-1140.0000,0.0824,-0.9845
20521737,101286.507812,20.760000,3.205454,0.7900,0.9500,9.4800,-20.1875,1.6875,-55.5000,0.0000,0.0000,0.0000,16297.0000,662.0000,-724.0000,-1375.0000,0.0173,-1.6667
20551829,101281.523438,20.750000,3.620248,0.9300,0.5100,8.5000,-14.9375,4.0625,-50.2500,0.0000,0.0000,0.0000,16280.0000,607.0000,-706.0000,-1593.0000,0.0683,-0.4005
20583744,101294.343750,20.760000,2.552797,0.7800,1.6000,8.5700,-5.0625,10.2500,-55.5625,0.0000,0.0000,0.0000,16259.0000,590.0000,-660.0000,-1815.0000,0.0114,-1.1346
20613852,101285.429688,20.750000,3.294918,0.2100,1.9200,9.7600,-23.2500,17.0625,-47.5000,0.0000,0.0000,0.0000,16239.0000,537.0000,-579.0000,-2025.0000,0.0185,-0.6869
20643939,101272.609375,20.750000,4.362954,0.2500,1.3200,10.0100,-31.0625,10.4375,-39.5625,0.0000,0.0000,0.0000,16222.0000,422.0000,-501.0000,-2203.0000,0.1178,1.0075
20679242,101283.671875,20.760000,3.441316,0.4900,0.7400,10.7800,-31.7500,14.3750,-36.7500,0.0000,0.0000,0.0000,16205.0000,307.0000,-432.0000,-2359.0000,0.0674,-0.0501
20721620,101283.281250,20.740000,3.473849,0.2900,1.3700,11.0100,-33.6250,0.9375,-35.2500,0.0000,0.0000,0.0000,16171.0000,101.0000,-347.0000,-2609.0000,0.1132,0.6525
20774560,101278.289062,20.740000,3.889670,0.4900,1.2400,9.3700,-19.3125,-10.4375,-19.6875,0.0000,0.0000,0.0000,16138.0000,-106.0000,-394.0000,-2797.0000,0.1462,0.9509
20804570,101286.117188,20.740000,3.237987,1.0000,0.0700,8.3100,13.7500,-10.7500,-9.0625,0.0000,0.0000,0.0000,16128.0000,-112.0000,-447.0000,-2848.0000,0.2320,1.9535
20836844,101291.109375,20.740000,2.822191,0.6600,-0.6200,9.5200,27.0000,16.6250,-8.9375,0.0000,0.0000,0.0000,16123.0000,-5.0000,-420.0000,-2880.0000,0.2079,1.0053
20871598,101280.046875,20.730000,3.743266,0.4900,-0.0900,9.2100,37.0625,2.1875,-11.5000,0.0000,0.0000,0.0000,16115.0000,201.0000,-426.0000,-2935.0000,0.2379,1.1533
20902792,101275.453125,20.740000,4.126055,0.6700,0.0000,8.9300,24.6875,-5.5000,-3.4375,0.0000,0.0000,0.0000,16106.0000,299.0000,-468.0000,-2956.0000,0.2682,1.2627
20942570,101282.203125,20.740000,3.563823,0.9600,-0.8100,8.5000,16.4375,-11.1875,2.5625,0.0000,0.0000,0.0000,16104.0000,384.0000,-538.0000,-2945.0000,0.3455,2.0431
20973045,101280.046875,20.730000,3.743266,1.2400,1.4400,9.8400,21.6250,-5.2500,-6.0000,0.0000,0.0000,0.0000,16097.0000,460.0000,-593.0000,-2958.0000,0.3926,2.1369
21003251,101280.046875,20.730000,3.743266,0.4400,1.9000,12.5300,0.1875,-11.7500,18.8125,0.0000,0.0000,0.0000,16102.0000,465.0000,-618.0000,-2925.0000,0.3264,0.5027
21035174,101288.960938,20.730000,3.001113,0.5600,0.1900,10.8500,21.4375,-68.6250,13.1875,0.0000,0.0000,0.0000,16107.0000,478.0000,-825.0000,-2846.0000,0.2894,-0.2032
21065282,101280.046875,20.730000,3.743266,1.0600,0.9700,8.6000,12.1250,-88.7500,7.9375,0.0000,0.0000,0.0000,16086.0000,504.0000,-1197.0000,-2828.0000,0.2955,-0.0512
21095411,101280.046875,20.730000,3.743266,1.4100,-0.6100,6.5200,-10.9375,-107.2500,20.8125,0.0000,0.0000,0.0000,16064.0000,400.0000,-1601.0000,-2766.0000,0.2683,-0.4439
21131815,101280.046875,20.730000,3.743266,2.4700,-0.3400,5.7900,-2.5625,-88.9375,8.3750,0.0000,0.0000,0.0000,16028.0000,296.0000,-2008.0000,-2724.0000,0.2932,0.0630
21163370,101280.046875,20.730000,3.743266,1.4300,0.3900,6.8100,7.7500,-47.1875,3.3750,0.0000,0.0000,0.0000,15989.0000,275.0000,-2304.0000,-2721.0000,0.3811,1.3621
21193839,101278.976562,20.719999,3.832227,2.2700,-0.1400,6.4400,18.2500,-44.0625,14.8125,0.0000,0.0000,0.0000,15968.0000,307.0000,-2506.0000,-2665.0000,0.3756,0.8718
21225744,101276.140625,20.730000,4.068610,2.6600,-0.5900,5.2400,7.8750,-52.4375,8.8125,0.0000,0.0000,0.0000,15943.0000,305.0000,-2713.0000,-2611.0000,0.3461,0.1671
21255869,101283.968750,20.730000,3.416916,2.8000,0.0400,5.2200,-1.3125,-31.1250,-6.8125,0.0000,0.0000,0.0000,15912.0000,291.0000,-2879.0000,-2623.0000,0.3307,-0.1132
21285910,101290.718750,20.719999,2.854722,2.7800,0.5900,5.7100,-10.1875,-9.8750,-10.6250,0.0000,0.0000,0.0000,15895.0000,256.0000,-2933.0000,-2670.0000,0.2358,-1.5026
21323991,101281.132812,20.730000,3.652782,3.0200,1.2500,5.6100,-7.1250,-0.1250,-11.1250,0.0000,0.0000,0.0000,15881.0000,219.0000,-2959.0000,-2727.0000,0.2273,-1.1799
21354343,101261.546875,20.730000,5.284165,2.8100,1.4500,6.8500,-6.6250,25.3750,-7.0625,0.0000,0.0000,0.0000,15887.0000,211.0000,-2887.0000,-2770.0000,0.3992,1.7522
21384452,101283.968750,20.730000,3.416916,2.5600,1.4500,8.0300,-8.1250,40.2500,-8.9375,0.0000,0.0000,0.0000,15908.0000,210.0000,-2733.0000,-2800.0000,0.3747,0.8593
21416405,101280.046875,20.730000,3.743266,2.6800,0.6300,8.6800,-13.0000,45.6875,-6.6250,0.0000,0.0000,0.0000,15933.0000,204.0000,-2546.0000,-2839.0000,0.3491,0.2174
21446475,101282.203125,20.740000,3.563823,2.2000,0.8100,9.2100,-7.8750,43.0625,-7.8750,0.0000,0.0000,0.0000,15956.0000,203.0000,-2356.0000,-2874.0000,0.3240,-0.2245
21476596,101283.281250,20.740000,3.473849,2.1700,0.3300,8.9800,-12.1250,31.7500,-9.8125,0.0000,0.0000,0.0000,15971.0000,192.0000,-2203.0000,-2912.0000,0.2899,-0.6689
21512323,101277.210938,20.730000,3.979648,1.9300,1.5800,10.2100,-16.3750,37.0000,-16.9375,0.0000,0.0000,0.0000,15978.0000,168.0000,-2052.0000,-2982.0000,0.2855,-0.5331
21544595,101280.046875,20.730000,3.743266,1.8000,0.9400,10.3300,-18.7500,29.6875,-10.1875,0.0000,0.0000,0.0000,15988.0000,106.0000,-1864.0000,-3055.0000,0.2339,-1.1472
21575009,101290.039062,20.740000,2.911144,1.8100,0.9100,9.2600,-6.2500,6.3125,-7.5625,0.0000,0.0000,0.0000,15986.0000,91.0000,-1816.0000,-3092.0000,0.1892,-1.4734
21616224,101278.976562,20.719999,3.832227,1.8800,-0.3300,8.6500,8.3750,10.3750,0.0000,0.0000,0.0000,0.0000,15988.0000,115.0000,-1778.0000,-3104.0000,0.2780,0.3005
21755455,101280.046875,20.730000,3.743266,1.7400,0.7700,8.2900,-7.3125,9.8125,-11.5625,0.0000,0.0000,0.0000,15971.0000,79.0000,-1513.0000,-3326.0000,0.2662,0.0330
21895374,101278.289062,20.740000,3.889670,1.0000,0.0400,8.7800,-4.2500,10.5625,-12.1875,0.0000,0.0000,0.0000,15964.0000,25.0000,-1062.0000,-3529.0000,0.1000,-2.4697
22146864,101274.367188,20.740000,4.216544,0.7000,-0.3900,9.6100,-8.6250,-0.3750,-13.8750,0.0000,0.0000,0.0000,15875.0000,-210.0000,-676.0000,-3991.0000,0.1656,-0.7445
22246444,101282.203125,20.740000,3.563823,0.6800,-1.0500,9.5900,-2.0000,7.3750,-14.3125,0.0000,0.0000,0.0000,15828.0000,-222.0000,-633.0000,-4180.0000,0.1583,-0.6314
22277084,101282.203125,20.740000,3.563823,0.7000,-1.1500,9.8700,-9.5000,6.8750,-16.3125,0.0000,0.0000,0.0000,15811.0000,-248.0000,-592.0000,-4245.0000,0.1671,-0.3101
22307336,101282.203125,20.740000,3.563823,0.7900,-0.5400,10.3800,-5.9375,4.6250,-21.3750,0.0000,0.0000,0.0000,15791.0000,-273.0000,-563.0000,-4324.0000,0.1588,-0.3413
22339271,101273.296875,20.730000,4.305508,0.4500,-0.3400,9.9200,-8.7500,-7.6250,-17.9375,0.0000,0.0000,0.0000,15768.0000,-304.0000,-567.0000,-4403.0000,0.1824,0.1153
22369395,101282.203125,20.740000,3.563823,0.5200,0.3700,9.5100,-6.6875,-2.5000,-18.3750,0.0000,0.0000,0.0000,15746.0000,-339.0000,-586.0000,-4476.0000,0.1537,-0.3496
22399541,101283.968750,20.730000,3.416916,0.5900,0.9000,10.8800,-5.6250,7.0625,-16.1250,0.0000,0.0000,0.0000,15727.0000,-353.0000,-558.0000,-4546.0000,0.2001,0.4505
22435593,101278.289062,20.740000,3.889670,0.3200,0.3500,10.1800,-3.2500,-16.6875,-7.6875,0.0000,0.0000,0.0000,15713.0000,-377.0000,-586.0000,-4587.0000,0.1921,0.1962
22467503,101287.203125,20.740000,3.147506,0.6400,-0.2600,9.3600,-2.5000,-14.8750,-6.8125,0.0000,0.0000,0.0000,15700.0000,-414.0000,-671.0000,-4619.0000,0.1301,-0.7926
22497963,101282.203125,20.740000,3.563823,0.8600,0.1500,9.7000,-1.1250,-8.4375,-5.0000,0.0000,0.0000,0.0000,15691.0000,-432.0000,-709.0000,-4642.0000,0.1016,-0.9826
22529824,101280.046875,20.730000,3.743266,0.6700,-0.1300,9.6200,-4.7500,-17.1875,-2.9375,0.0000,0.0000,0.0000,15684.0000,-468.0000,-755.0000,-4654.0000,0.0370,-1.6571
22559960,101282.203125,20.740000,3.563823,1.0200,-0.3600,8.5800,9.9375,-19.1875,-3.3750,0.0000,0.0000,0.0000,15677.0000,-474.0000,-840.0000,-4664.0000,0.0346,-1.1967
22590153,101283.968750,20.730000,3.416916,1.2100,-1.1900,8.2700,15.8125,-6.5625,-4.8750,0.0000,0.0000,0.0000,15671.0000,-423.0000,-904.0000,-4675.0000,-0.0010,-1.3713
22628298,101280.046875,20.730000,3.743266,1.2000,-0.0300,9.3400,-3.7500,4.0000,-10.9375,0.0000,0.0000,0.0000,15657.0000,-412.0000,-892.0000,-4724.0000,0.0062,-0.8521
22658519,101294.640625,20.719999,2.527892,1.3000,-0.7800,8.9000,-22.1250,-5.0625,-3.8125,0.0000,0.0000,0.0000,15647.0000,-491.0000,-881.0000,-4752.0000,-0.1580,-3.0596
22688596,101282.890625,20.719999,3.506382,1.3400,-0.5500,9.1300,-6.7500,5.0625,-8.8125,0.0000,0.0000,0.0000,15637.0000,-540.0000,-864.0000,-4783.0000,-0.1615,-2.1937
22720508,101276.140625,20.730000,4.068610,1.2200,-0.1700,10.2300,-7.4375,11.3125,-7.3125,0.0000,0.0000,0.0000,15628.0000,-549.0000,-814.0000,-4820.0000,-0.1267,-1.0128
22750618,101283.968750,20.730000,3.416916,1.3600,-0.7400,10.0400,-13.8125,-6.1250,-2.5000,0.0000,0.0000,0.0000,15622.0000,-594.0000,-797.0000,-4836.0000,-0.1764,-1.4547
22780750,101290.718750,20.719999,2.854722,1.4200,-0.6300,8.8700,-15.2500,-7.3125,-5.1250,0.0000,0.0000,0.0000,15613.0000,-664.0000,-818.0000,-4853.0000,-0.1755,-1.0050
22816864,101280.046875,20.730000,3.743266,1.3500,-0.1100,9.8400,-15.6875,2.1875,-4.2500,0.0000,0.0000,0.0000,15604.0000,-720.0000,-795.0000,-4877.0000,-0.1636,-0.5249
22848777,101278.289062,20.740000,3.889670,1.3200,-0.4100,8.8200,-7.9375,-5.0625,0.6250,0.0000,0.0000,0.0000,15598.0000,-778.0000,-795.0000,-4887.0000,-0.1573,-0.2726
22879166,101281.132812,20.730000,3.652782,1.4800,-0.8800,9.5200,-3.0625,7.4375,1.5000,0.0000,0.0000,0.0000,15600.0000,-789.0000,-778.0000,-4883.0000,-0.1436,0.0137
22911072,101280.046875,20.730000,3.743266,1.2500,-0.6900,10.1100,-5.5625,1.3750,-1.1250,0.0000,0.0000,0.0000,15600.0000,-795.0000,-751.0000,-4886.0000,-0.1211,0.3475
22941253,101288.960938,20.730000,3.001113,1.3000,-0.8200,9.2600,-17.3750,-11.5625,-0.2500,0.0000,0.0000,0.0000,15595.0000,-857.0000,-769.0000,-4890.0000,-0.1989,-0.9236
22971355,101276.140625,20.730000,4.068610,1.5500,-0.8700,9.3900,-22.5000,-6.5625,-0.8125,0.0000,0.0000,0.0000,15587.0000,-957.0000,-776.0000,-4894.0000,-0.0513,1.5669
23009413,101283.968750,20.730000,3.416916,1.6100,-1.5100,9.8100,-11.7500,-0.7500,-1.0625,0.0000,0.0000,0.0000,15582.0000,-1032.0000,-765.0000,-4898.0000,-0.0461,1.1754
23039692,101278.289062,20.740000,3.889670,1.5600,-1.0400,9.9700,-1.4375,1.5625,-5.8750,0.0000,0.0000,0.0000,15575.0000,-1036.0000,-758.0000,-4920.0000,-0.0705,0.4566
23069795,101288.960938,20.730000,3.001113,1.5600,-1.2000,9.7600,-4.3750,2.3750,-6.8125,0.0000,0.0000,0.0000,15566.0000,-1056.0000,-753.0000,-4945.0000,-0.0972,-0.0814
23101724,101282.203125,20.740000,3.563823,1.4300,-0.7700,10.5600,-5.0625,5.5625,-7.5000,0.0000,0.0000,0.0000,15556.0000,-1069.0000,-734.0000,-4977.0000,-0.0227,1.0605
23131854,101280.046875,20.730000,3.743266,1.1600,-1.1300,8.9100,-6.2500,-11.0000,-3.6250,0.0000,0.0000,0.0000,15547.0000,-1100.0000,-746.0000,-4997.0000,-0.0376,0.5197
23161978,101291.109375,20.740000,2.822191,1.3500,-1.5100,8.5100,4.6875,2.1875,-9.2500,0.0000,0.0000,0.0000,15537.0000,-1103.0000,-771.0000,-5021.0000,-0.1259,-0.9611
23198351,101280.437500,20.750000,3.710732,1.2800,-0.5400,10.4700,5.5625,26.5625,-11.5000,0.0000,0.0000,0.0000,15528.0000,-1040.0000,-706.0000,-5074.0000,-0.1195,-0.5761
23229942,101282.203125,20.740000,3.563823,0.9300,-0.7800,9.8200,0.9375,1.3125,-2.3125,0.0000,0.0000,0.0000,15522.0000,-1014.0000,-673.0000,-5101.0000,-0.1338,-0.6186
23270450,101283.281250,20.740000,3.473849,1.4300,-1.5100,8.4200,30.2500,8.3750,-8.2500,0.0000,0.0000,0.0000,15521.0000,-881.0000,-751.0000,-5117.0000,-0.0812,0.3569
23320604,101285.039062,20.730000,3.327451,0.6700,-0.2800,10.4000,16.4375,27.2500,-9.6875,0.0000,0.0000,0.0000,15510.0000,-690.0000,-621.0000,-5197.0000,-0.1452,-0.7105
23351305,101283.281250,20.740000,3.473849,0.9500,-0.8200,9.1500,42.1250,14.8750,-8.0625,0.0000,0.0000,0.0000,15507.0000,-531.0000,-597.0000,-5228.0000,-0.1276,-0.2335
23381409,101282.203125,20.740000,3.563823,0.8000,-0.7400,10.6200,25.8125,27.2500,-8.3750,0.0000,0.0000,0.0000,15504.0000,-357.0000,-553.0000,-5257.0000,-0.1631,-0.6963
23420588,101283.281250,20.740000,3.473849,0.6800,0.1600,10.1100,-14.3750,6.6875,-6.5625,0.0000,0.0000,0.0000,15492.0000,-370.0000,-483.0000,-5297.0000,-0.1282,0.0360
23450993,101286.117188,20.740000,3.237987,0.8000,0.1000,8.5900,-13.2500,-9.9375,-3.3125,0.0000,0.0000,0.0000,15483.0000,-430.0000,-506.0000,-5316.0000,-0.1525,-0.3391
23481152,101283.281250,20.740000,3.473849,0.8700,-0.3600,8.9100,14.7500,11.5625,-3.2500,0.0000,0.0000,0.0000,15481.0000,-380.0000,-508.0000,-5327.0000,-0.1432,-0.0984
23513106,101287.203125,20.740000,3.147506,0.8400,0.0000,10.4900,6.8125,22.0000,-7.6250,0.0000,0.0000,0.0000,15476.0000,-306.0000,-444.0000,-5352.0000,-0.1053,0.4999
23543189,101284.359375,20.750000,3.384383,0.6900,0.2700,10.0400,-2.3125,4.8125,-4.8750,0.0000,0.0000,0.0000,15468.0000,-290.0000,-400.0000,-5378.0000,-0.1308,-0.0319
23573314,101296.109375,20.750000,2.405396,0.6100,0.1300,9.9500,8.6250,2.7500,-2.1250,0.0000,0.0000,0.0000,15465.0000,-273.0000,-394.0000,-5388.0000,-0.2235,-1.4125
23605214,101284.359375,20.750000,3.384383,0.6600,0.1000,9.8300,14.1250,4.2500,-0.8125,0.0000,0.0000,0.0000,15465.0000,-209.0000,-403.0000,-5391.0000,-0.2306,-1.0961
23635313,101287.203125,20.740000,3.147506,0.5400,0.1900,9.7600,5.5000,2.4375,-0.3125,0.0000,0.0000,0.0000,15465.0000,-166.0000,-406.0000,-5393.0000,-0.2320,-0.7875
23665434,101287.203125,20.740000,3.147506,0.5600,0.3300,9.6800,6.3750,0.4375,0.1875,0.0000,0.0000,0.0000,15465.0000,-145.0000,-412.0000,-5393.0000,-0.2527,-0.8621
23695543,101295.031250,20.740000,2.495362,0.6200,0.1600,10.0200,14.6250,-0.5000,5.5000,0.0000,0.0000,0.0000,15469.0000,-84.0000,-429.0000,-5380.0000,-0.3512,-2.0814
23731218,101279.367188,20.740000,3.799693,0.4900,-0.1300,9.1100,9.8125,-8.3750,5.1250,0.0000,0.0000,0.0000,15478.0000,-43.0000,-481.0000,-5351.0000,-0.3180,-0.9585
23761867,101288.273438,20.750000,3.058044,0.6800,0.2800,8.8600,5.5625,-0.6875,-0.1875,0.0000,0.0000,0.0000,15479.0000,-30.0000,-507.0000,-5347.0000,-0.3223,-0.7353
23792107,101283.281250,20.740000,3.473849,0.6300,0.1500,9.5300,13.6250,11.0625,3.6875,0.0000,0.0000,0.0000,15482.0000,13.0000,-487.0000,-5339.0000,-0.3139,-0.3899
23831843,101296.109375,20.750000,2.405396,0.6900,-0.3500,9.2400,31.3125,10.5000,2.5000,0.0000,0.0000,0.0000,15488.0000,172.0000,-478.0000,-5319.0000,-0.3519,-0.8428
23862295,101284.359375,20.750000,3.384383,0.5400,0.2100,9.6700,8.5625,10.7500,0.1875,0.0000,0.0000,0.0000,15490.0000,223.0000,-450.0000,-5315.0000,-0.3483,-0.5361
23892419,101283.281250,20.740000,3.473849,0.1900,0.8100,9.8700,2.8125,8.4375,-0.1250,0.0000,0.0000,0.0000,15491.0000,231.0000,-411.0000,-5314.0000,-0.2397,1.2544
23924413,101292.187500,20.750000,2.732223,0.5000,0.2100,9.1600,36.2500,7.9375,-0.0625,0.0000,0.0000,0.0000,15489.0000,337.0000,-419.0000,-5313.0000,-0.2883,0.1493
23954504,101290.039062,20.740000,2.911144,0.4700,-0.0900,9.8100,19.3750,18.2500,-1.0000,0.0000,0.0000,0.0000,15487.0000,480.0000,-394.0000,-5309.0000,-0.2840,0.1683
23984665,101296.109375,20.750000,2.405396,0.2800,0.3700,9.6800,-20.2500,7.2500,-4.1875,0.0000,0.0000,0.0000,15485.0000,459.0000,-338.0000,-5321.0000,-0.3351,-0.6478
24021016,101292.187500,20.750000,2.732223,-0.1000,0.5400,9.5400,-17.1875,4.6250,-1.0000,0.0000,0.0000,0.0000,15484.0000,384.0000,-288.0000,-5333.0000,-0.2977,0.1072
24052564,101288.273438,20.750000,3.058044,0.0100,0.0600,7.7900,7.6875,4.0000,-6.3750,0.0000,0.0000,0.0000,15480.0000,410.0000,-273.0000,-5344.0000,-0.3552,-0.7879
24083041,101282.203125,20.740000,3.563823,-0.0700,0.4000,9.6400,12.4375,34.7500,-7.2500,0.0000,0.0000,0.0000,15470.0000,492.0000,-184.0000,-5370.0000,-0.3130,0.0822
24114941,101290.039062,20.740000,2.911144,-0.3600,0.1700,11.4700,-8.0625,33.3750,-4.5000,0.0000,0.0000,0.0000,15464.0000,533.0000,-35.0000,-5386.0000,-0.3562,-0.5907
24145048,101285.039062,20.730000,3.327451,-0.7700,-0.5700,12.1600,-7.6250,21.8750,-6.6875,0.0000,0.0000,0.0000,15458.0000,524.0000,73.0000,-5404.0000,-0.2557,1.0943
24175122,101284.359375,20.750000,3.384383,-2.0600,1.9900,16.8400,42.3750,58.6875,-30.5625,0.0000,0.0000,0.0000,15425.0000,668.0000,217.0000,-5480.0000,-0.2521,0.8199
24213273,101290.039062,20.740000,2.911144,-4.1500,6.0900,22.6600,87.8125,73.5000,-39.5000,0.0000,0.0000,0.0000,15309.0000,1230.0000,470.0000,-5687.0000,-0.2982,-0.1184
24243525,101286.117188,20.740000,3.237987,-3.9800,7.3100,23.0500,90.0000,25.7500,-27.3125,0.0000,0.0000,0.0000,15223.0000,1649.0000,519.0000,-5806.0000,-0.2376,0.8273
24273791,101286.117188,20.740000,3.237987,-2.4800,5.0200,19.3200,58.5625,-22.1875,-5.6250,0.0000,0.0000,0.0000,15177.0000,1898.0000,395.0000,-5859.0000,-0.2191,0.8564
24305664,101286.117188,20.740000,3.237987,-1.2700,8.4000,17.2200,89.3750,-43.4375,-4.7500,0.0000,0.0000,0.0000,15132.0000,2125.0000,141.0000,-5909.0000,-0.1358,1.8483
24335767,101281.132812,20.730000,3.652782,-1.1500,9.3300,14.6100,127.0000,15.7500,38.5000,0.0000,0.0000,0.0000,15089.0000,2555.0000,-104.0000,-5849.0000,-0.0438,2.6747
24373985,101281.132812,20.730000,3.652782,-0.0100,-2.5800,13.3000,-29.6875,-33.0625,92.6250,0.0000,0.0000,0.0000,15208.0000,2772.0000,-228.0000,-5423.0000,0.0157,2.7644
24433101,101287.882812,20.730000,3.090576,2.4400,3.7400,3.0900,-58.3125,-86.4375,-9.0000,0.0000,0.0000,0.0000,15336.0000,1737.0000,-920.0000,-5421.0000,-0.0316,1.2252
24464048,101281.132812,20.730000,3.652782,1.0400,-5.2200,-0.2400,111.7500,-27.3750,61.3125,0.0000,0.0000,0.0000,15354.0000,2066.0000,-1232.0000,-5186.0000,0.0426,1.9701
24494315,101287.882812,20.730000,3.090576,1.7000,-2.7500,3.0200,-122.1875,13.2500,20.1875,0.0000,0.0000,0.0000,15415.0000,1925.0000,-1181.0000,-5071.0000,0.0189,1.0238
24526176,101266.148438,20.719999,4.900826,-1.3700,2.6500,10.4700,-23.0625,-27.2500,2.6250,0.0000,0.0000,0.0000,15466.0000,1589.0000,-1059.0000,-5058.0000,0.1705,2.9913
24556298,101285.726562,20.719999,3.270519,-0.2200,4.0700,5.8600,103.3750,-72.9375,20.3125,0.0000,0.0000,0.0000,15421.0000,1814.0000,-1437.0000,-5027.0000,0.2064,2.6330
24586403,101277.898438,20.719999,3.922204,0.3600,-3.9000,3.9200,9.0000,-63.4375,35.5000,0.0000,0.0000,0.0000,15417.0000,1923.0000,-1770.0000,-4892.0000,0.2749,2.8694
24624527,101276.820312,20.719999,4.012183,2.0000,-0.0100,5.4100,-105.3750,-60.3750,-26.5625,0.0000,0.0000,0.0000,15409.0000,1395.0000,-2050.0000,-4986.0000,0.3523,3.1699
24654814,101285.726562,20.719999,3.270519,0.5900,2.6000,5.1000,43.5000,-34.8750,4.6250,0.0000,0.0000,0.0000,15363.0000,1466.0000,-2204.0000,-5042.0000,0.3555,2.2677
24684922,101277.898438,20.719999,3.922204,1.6900,-4.1100,1.8900,-15.5625,-37.6250,-3.5625,0.0000,0.0000,0.0000,15349.0000,1433.0000,-2381.0000,-5011.0000,0.3825,1.9915
24716831,101275.750000,20.709999,4.101145,2.0900,1.9100,3.9000,-61.1250,1.1875,-35.9375,0.0000,0.0000,0.0000,15320.0000,1207.0000,-2352.0000,-5172.0000,0.4273,2.0666
24746955,101277.898438,20.719999,3.922204,0.9500,5.7000,5.1400,12.6875,8.2500,3.8750,0.0000,0.0000,0.0000,15312.0000,1191.0000,-2294.0000,-5226.0000,0.5105,2.6941
24777072,101283.578125,20.709999,3.449449,1.9100,-0.3000,2.9100,1.5625,15.4375,8.6875,0.0000,0.0000,0.0000,15334.0000,1225.0000,-2282.0000,-5159.0000,0.4901,1.5809
24807200,101275.750000,20.709999,4.101145,1.8600,3.0900,7.4100,-21.6875,81.0625,-12.3125,0.0000,0.0000,0.0000,15359.0000,1257.0000,-2029.0000,-5182.0000,0.5912,2.6224
24843268,101283.578125,20.709999,3.449449,0.9700,1.4900,10.1600,-29.0000,64.9375,13.2500,0.0000,0.0000,0.0000,15410.0000,1252.0000,-1687.0000,-5154.0000,0.4461,-0.3413
24875179,101268.992188,20.719999,4.663915,1.0100,1.2600,8.9800,-28.0000,6.3125,-21.6250,0.0000,0.0000,0.0000,15423.0000,1136.0000,-1548.0000,-5186.0000,0.5854,1.8511
24905607,101285.726562,20.719999,3.270519,0.7300,2.5400,9.3600,-26.9375,0.3125,-15.4375,0.0000,0.0000,0.0000,15402.0000,1040.0000,-1503.0000,-5278.0000,0.5202,0.3183
24937525,101285.726562,20.719999,3.270519,0.6700,0.4300,7.6000,-23.9375,-17.0625,-12.1250,0.0000,0.0000,0.0000,15393.0000,937.0000,-1510.0000,-5324.0000,0.4461,-0.8897
24967653,101277.898438,20.719999,3.922204,0.4800,3.8200,7.9100,-7.9375,-1.8125,-26.3125,0.0000,0.0000,0.0000,15356.0000,882.0000,-1522.0000,-5435.0000,0.5112,0.3547
24997780,101279.656250,20.709999,3.775800,0.9500,1.0500,8.1100,-5.9375,8.5625,9.4375,0.0000,0.0000,0.0000,15357.0000,868.0000,-1490.0000,-5444.0000,0.4966,0.0287
25035874,101283.578125,20.709999,3.449449,0.5800,3.1600,9.7400,-16.2500,41.0000,-38.6875,0.0000,0.0000,0.0000,15344.0000,845.0000,-1352.0000,-5518.0000,0.4314,-0.9575
25066151,101272.906250,20.719999,4.338044,-0.2000,5.2800,11.8900,-14.3750,32.6875,-5.1250,0.0000,0.0000,0.0000,15334.0000,855.0000,-1161.0000,-5588.0000,0.4730,-0.0465
25096281,101281.812500,20.719999,3.596357,0.7200,-0.3900,9.1600,-1.0625,-23.1250,18.0625,0.0000,0.0000,0.0000,15352.0000,823.0000,-1175.0000,-5539.0000,0.4877,0.1878
25128209,101292.492188,20.719999,2.706809,1.2300,-2.0300,8.0400,-16.8750,-16.5000,-3.6875,0.0000,0.0000,0.0000,15357.0000,747.0000,-1260.0000,-5517.0000,0.3483,-1.9600
25158380,101280.742188,20.719999,3.685316,-0.3400,3.2600,11.0700,-28.4375,23.8750,-25.5625,0.0000,0.0000,0.0000,15333.0000,670.0000,-1169.0000,-5615.0000,0.3719,-1.0182
25188443,101284.648438,20.719999,3.359984,-0.9600,3.2800,11.2500,-10.3125,7.8750,5.1250,0.0000,0.0000,0.0000,15330.0000,635.0000,-1078.0000,-5646.0000,0.2415,-2.6686
25224840,101285.726562,20.719999,3.270519,-1.3100,1.8900,10.7800,-16.5625,0.5000,3.9375,0.0000,0.0000,0.0000,15345.0000,576.0000,-1066.0000,-5613.0000,0.2415,-1.8681
25256485,101279.656250,20.709999,3.775800,-2.0700,3.7700,11.1800,-31.8750,-4.0625,27.8750,0.0000,0.0000,0.0000,15378.0000,425.0000,-1025.0000,-5543.0000,0.2920,-0.5497
25286852,101287.492188,20.709999,3.123108,-1.5200,1.6300,10.4700,2.3125,-6.8125,52.0625,0.0000,0.0000,0.0000,15438.0000,388.0000,-1043.0000,-5371.0000,0.2121,-1.5834
25327960,101282.500000,20.709999,3.538915,-0.3100,0.0000,10.0600,1.4375,-0.4375,48.1875,0.0000,0.0000,0.0000,15528.0000,398.0000,-1093.0000,-5096.0000,0.1884,-1.4637
25467285,101285.726562,20.719999,3.270519,3.6500,-2.4600,6.6000,9.5000,8.1250,65.0000,0.0000,0.0000,0.0000,15881.0000,210.0000,-1464.0000,-3745.0000,0.1705,-1.2930
25607292,101291.406250,20.709999,2.797285,4.1500,-3.1700,8.4700,-55.4375,0.0625,-10.7500,0.0000,0.0000,0.0000,16004.0000,-219.0000,-1110.0000,-3321.0000,0.0164,-3.2162
25859015,101282.500000,20.709999,3.538915,0.5700,0.4100,11.9900,37.2500,4.2500,-69.6875,0.0000,0.0000,0.0000,15465.0000,-443.0000,-375.0000,-5378.0000,0.0107,-2.3375
25958186,101282.500000,20.709999,3.538915,0.8900,1.0300,9.2900,16.8125,-36.9375,-57.7500,0.0000,0.0000,0.0000,15183.0000,-320.0000,-749.0000,-6102.0000,0.0939,-0.3881
25988871,101294.250000,20.709999,2.560422,1.6500,0.6200,10.2900,29.6875,-18.1250,-51.6250,0.0000,0.0000,0.0000,15092.0000,-236.0000,-893.0000,-6310.0000,-0.0186,-1.9590
26020791,101278.578125,20.709999,3.865777,1.1400,-0.5400,12.0800,31.0000,-10.0625,-49.5000,0.0000,0.0000,0.0000,15012.0000,-125.0000,-974.0000,-6488.0000,0.0320,-0.6126
26050886,101290.328125,20.709999,2.887254,1.2100,0.6100,10.0700,26.7500,-39.1250,-59.0000,0.0000,0.0000,0.0000,14910.0000,-48.0000,-1147.0000,-6693.0000,-0.0063,-1.0037
26081049,101285.343750,20.700001,3.302035,1.5000,1.9900,8.4400,12.5000,-36.2500,-58.3125,0.0000,0.0000,0.0000,14795.0000,-33.0000,-1318.0000,-6915.0000,-0.0537,-1.4133
26115303,101283.578125,20.709999,3.449449,2.4000,0.9200,9.3000,10.5000,-13.5625,-49.9375,0.0000,0.0000,0.0000,14694.0000,-16.0000,-1426.0000,-7106.0000,-0.0211,-0.4998
26148889,101289.257812,20.700001,2.976207,1.3000,0.3000,10.8600,23.7500,-3.4375,-51.1250,0.0000,0.0000,0.0000,14566.0000,98.0000,-1497.0000,-7350.0000,-0.0774,-1.1939
26179571,101282.500000,20.709999,3.538915,1.4700,1.3100,6.6500,28.9375,-40.0625,-64.3125,0.0000,0.0000,0.0000,14436.0000,159.0000,-1677.0000,-7564.0000,-0.0505,-0.4331
26211460,101282.500000,20.709999,3.538915,1.7200,3.0500,8.2100,8.3750,-6.1875,-62.1250,0.0000,0.0000,0.0000,14303.0000,193.0000,-1778.0000,-7788.0000,0.0236,0.8092
26241577,101284.648438,20.719999,3.359984,1.0700,2.1600,10.1700,-0.8750,7.3125,-42.5000,0.0000,0.0000,0.0000,14209.0000,237.0000,-1742.0000,-7965.0000,0.0058,0.2981
26271674,101282.500000,20.709999,3.538915,1.4900,0.8900,7.1100,5.2500,-36.3750,-35.2500,0.0000,0.0000,0.0000,14125.0000,220.0000,-1835.0000,-8094.0000,0.0058,0.2087
26309920,101283.578125,20.709999,3.449449,2.2200,2.5500,7.0000,0.2500,1.6875,-46.3125,0.0000,0.0000,0.0000,13990.0000,193.0000,-1941.0000,-8300.0000,0.0947,1.4796
26340149,101276.820312,20.719999,4.012183,1.2900,2.2800,10.4300,9.3125,23.9375,-25.7500,0.0000,0.0000,0.0000,13932.0000,285.0000,-1858.0000,-8414.0000,0.1093,1.2553
26370271,101287.492188,20.709999,3.123108,1.6700,-0.4400,8.2300,18.6875,-9.2500,-26.0625,0.0000,0.0000,0.0000,13881.0000,358.0000,-1896.0000,-8486.0000,0.1329,1.2325
26402203,101287.492188,20.709999,3.123108,1.5000,2.5400,8.3600,2.2500,-1.5000,-42.8750,0.0000,0.0000,0.0000,13792.0000,390.0000,-1937.0000,-8620.0000,0.1150,0.5944
26432305,101294.250000,20.709999,2.560422,1.3000,2.9200,10.1300,3.8750,9.5625,-26.5625,0.0000,0.0000,0.0000,13724.0000,428.0000,-1902.0000,-8734.0000,0.0261,-0.9175
26462421,101283.578125,20.709999,3.449449,1.6000,0.5600,7.9000,20.6250,-11.3125,-15.5625,0.0000,0.0000,0.0000,13680.0000,486.0000,-1954.0000,-8788.0000,0.0734,0.0676
26498572,101273.593750,20.700001,4.280598,1.5700,1.1100,6.8100,12.6875,-6.4375,-28.5000,0.0000,0.0000,0.0000,13620.0000,534.0000,-2025.0000,-8862.0000,0.1476,1.1599
26530458,101283.578125,20.709999,3.449449,0.6600,4.4300,10.1600,-3.9375,17.3125,-20.6875,0.0000,0.0000,0.0000,13546.0000,586.0000,-1959.0000,-8987.0000,0.1386,0.6777
26560793,101278.578125,20.709999,3.865777,0.6700,2.9900,8.7700,8.9375,-2.6875,-4.9375,0.0000,0.0000,0.0000,13531.0000,634.0000,-1956.0000,-9007.0000,0.1892,1.2331
26590931,101282.500000,20.709999,3.538915,0.3100,5.1300,7.3500,5.6875,-2.2500,-9.6250,0.0000,0.0000,0.0000,13504.0000,666.0000,-2002.0000,-9034.0000,0.1892,0.8632
26622861,101283.578125,20.709999,3.449449,-0.6300,6.4300,10.3200,-5.3125,25.7500,9.9375,0.0000,0.0000,0.0000,13519.0000,694.0000,-1929.0000,-9026.0000,0.1892,0.6042
26653060,101287.492188,20.709999,3.123108,-0.8800,4.5700,10.6800,20.1250,16.8750,33.5000,0.0000,0.0000,0.0000,13590.0000,768.0000,-1884.0000,-8923.0000,0.1003,-0.9107
26683136,101283.578125,20.709999,3.449449,-1.4100,5.6600,9.3100,23.4375,11.1250,38.1250,0.0000,0.0000,0.0000,13671.0000,868.0000,-1918.0000,-8780.0000,0.1329,-0.1480
26721187,101283.578125,20.709999,3.449449,-2.2600,6.3500,11.0200,22.1875,27.0625,81.8125,0.0000,0.0000,0.0000,13859.0000,999.0000,-1886.0000,-8473.0000,0.1656,0.3859
26751455,101281.812500,20.719999,3.596357,-1.8000,3.3600,10.6000,22.6875,14.6250,97.4375,0.0000,0.0000,0.0000,14064.0000,1077.0000,-1890.0000,-8119.0000,0.2692,1.8241
26781604,101283.578125,20.709999,3.449449,-2.1000,5.7000,9.0700,19.0625,13.1875,90.6250,0.0000,0.0000,0.0000,14248.0000,1127.0000,-1921.0000,-7777.0000,0.2692,1.2768
26813461,101276.820312,20.719999,4.012183,-3.0000,6.0400,10.3700,20.1250,33.4375,125.0625,0.0000,0.0000,0.0000,14468.0000,1202.0000,-1880.0000,-7357.0000,0.2423,0.4912
26843582,101283.578125,20.709999,3.449449,-2.7100,2.8800,10.1500,36.8125,18.0000,146.4375,0.0000,0.0000,0.0000,14723.0000,1293.0000,-1894.0000,-6813.0000,0.2423,0.3438
26873687,101275.750000,20.709999,4.101145,-2.1300,-0.5400,9.9000,24.8125,15.1250,153.5000,0.0000,0.0000,0.0000,14973.0000,1352.0000,-1934.0000,-6219.0000,0.2659,0.5937
26909830,101275.750000,20.709999,4.101145,-2.4900,-2.1400,12.4500,11.1250,6.1250,146.5625,0.0000,0.0000,0.0000,15197.0000,1363.0000,-1958.0000,-5639.0000,0.3221,1.2590
26941731,101279.656250,20.709999,3.775800,-0.9800,-5.3100,10.8600,-14.8125,-43.3125,108.1250,0.0000,0.0000,0.0000,15405.0000,1168.0000,-2173.0000,-5005.0000,0.3547,1.3708
26972136,101279.656250,20.709999,3.775800,-1.0000,-4.7600,8.7900,-5.6875,-71.3125,81.7500,0.0000,0.0000,0.0000,15475.0000,1013.0000,-2446.0000,-4684.0000,0.4200,1.9386
27004024,101275.750000,20.709999,4.101145,0.9500,-6.0900,5.5600,8.4375,-77.3750,58.5000,0.0000,0.0000,0.0000,15503.0000,877.0000,-2767.0000,-4434.0000,0.4852,2.3346
27034135,101279.656250,20.709999,3.775800,1.3700,-0.8900,7.4600,125.0000,-6.1250,27.5625,0.0000,0.0000,0.0000,15495.0000,1124.0000,-2995.0000,-4255.0000,0.5178,2.1237
27064253,101287.492188,20.709999,3.123108,3.0500,-6.0900,10.0800,220.1875,15.8125,21.3750,0.0000,0.0000,0.0000,15461.0000,1898.0000,-3155.0000,-3978.0000,0.4705,0.7767
27131269,101279.656250,20.709999,3.775800,3.1300,3.1300,6.1800,84.2500,-16.4375,-21.6250,0.0000,0.0000,0.0000,15168.0000,3145.0000,-3568.0000,-3997.0000,0.5031,1.0332
27162489,101275.750000,20.709999,4.101145,5.4300,-1.2600,5.4100,76.1875,15.8750,-32.9375,0.0000,0.0000,0.0000,15063.0000,3531.0000,-3589.0000,-4023.0000,0.5120,0.8567
27192768,101287.492188,20.709999,3.123108,5.3500,0.7000,6.8900,-93.4375,26.0000,-56.0000,0.0000,0.0000,0.0000,15077.0000,3406.0000,-3400.0000,-4237.0000,0.4794,0.1102
27224694,101286.421875,20.709999,3.212571,4.3700,3.4300,10.1500,-159.2500,27.1250,-62.3750,0.0000,0.0000,0.0000,15149.0000,2937.0000,-3078.0000,-4567.0000,0.3905,-1.2557
27254795,101279.656250,20.709999,3.775800,5.1200,1.7300,9.3700,-193.3125,0.1875,-63.0625,0.0000,0.0000,0.0000,15199.0000,2305.0000,-2794.0000,-4932.0000,0.3580,-1.3670
27284886,101287.492188,20.709999,3.123108,4.8600,3.1700,10.3100,-324.8750,5.4375,-76.3750,0.0000,0.0000,0.0000,15232.0000,1282.0000,-2392.0000,-5389.0000,0.2927,-1.9360
27320793,101278.578125,20.709999,3.865777,3.2200,7.2900,16.4000,-404.3125,-1.4375,-67.5000,0.0000,0.0000,0.0000,15189.0000,-153.0000,-1796.0000,-5873.0000,0.3017,-1.2202
27352943,101285.343750,20.700001,3.302035,3.9600,3.4700,13.9100,-340.5000,-49.3750,-38.4375,0.0000,0.0000,0.0000,14938.0000,-2031.0000,-1289.0000,-6285.0000,0.2218,-2.0528
27383365,101274.671875,20.709999,4.191125,3.5700,2.8600,13.8700,-286.2500,-42.3750,-29.8750,0.0000,0.0000,0.0000,14687.0000,-3154.0000,-1013.0000,-6462.0000,0.2633,-0.8140
27415260,101281.421875,20.700001,3.628890,3.2800,2.0600,14.6800,-138.3750,-35.6250,-12.2500,0.0000,0.0000,0.0000,14488.0000,-3877.0000,-868.0000,-6538.0000,0.3139,0.1889
27445393,101289.257812,20.700001,2.976207,1.9900,1.2500,16.1800,-23.5625,-60.4375,12.1875,0.0000,0.0000,0.0000,14426.0000,-4156.0000,-941.0000,-6493.0000,0.2339,-1.0672
27475508,101288.179688,20.700001,3.066177,1.5300,0.4800,11.0800,56.7500,-117.0625,31.9375,0.0000,0.0000,0.0000,14468.0000,-4224.0000,-1333.0000,-6284.0000,0.1304,-2.2995
27513646,101288.179688,20.700001,3.066177,1.6000,-0.1100,7.7100,176.1250,-83.5625,61.9375,0.0000,0.0000,0.0000,14725.0000,-3701.0000,-2092.0000,-5790.0000,0.1248,-1.6950
27543893,101281.421875,20.700001,3.628890,2.5600,-0.4400,6.1300,382.8750,-16.5625,63.2500,0.0000,0.0000,0.0000,15055.0000,-2542.0000,-2663.0000,-5312.0000,0.1664,-0.5620
27573969,101285.343750,20.700001,3.302035,2.2600,-1.2900,7.5400,347.1875,87.8125,91.4375,0.0000,0.0000,0.0000,15371.0000,-1059.0000,-2904.0000,-4754.0000,0.1190,-1.1041
27605943,101280.351562,20.700001,3.717849,0.6900,0.7100,11.2300,234.3750,56.1875,94.6875,0.0000,0.0000,0.0000,15575.0000,-5.0000,-2868.0000,-4199.0000,0.1785,0.1193
27636017,101284.257812,20.700001,3.392516,1.1300,0.3600,6.6800,233.8125,25.2500,104.7500,0.0000,0.0000,0.0000,15667.0000,844.0000,-3018.0000,-3629.0000,0.1312,-0.6264
27666138,101283.187500,20.690001,3.481982,2.0800,-4.3800,7.5600,216.0625,73.5000,110.1875,0.0000,0.0000,0.0000,15730.0000,1722.0000,-3008.0000,-2998.0000,0.1492,-0.1686
27702482,101281.421875,20.700001,3.628890,1.9200,-3.6200,6.7700,151.1875,69.7500,64.3125,0.0000,0.0000,0.0000,15752.0000,2408.0000,-2874.0000,-2502.0000,0.0929,-0.9614
27734245,101280.351562,20.700001,3.717849,2.4300,-4.2700,6.8700,54.6875,77.6250,30.3750,0.0000,0.0000,0.0000,15792.0000,2810.0000,-2556.0000,-2149.0000,0.1018,-0.5395
27764540,101280.351562,20.700001,3.717849,1.7900,-4.9100,8.5800,-57.6875,92.6250,-7.5625,0.0000,0.0000,0.0000,15884.0000,2714.0000,-2116.0000,-2071.0000,0.1760,0.7348
27796494,101281.421875,20.700001,3.628890,2.0000,-4.7400,6.1100,-145.0625,65.7500,-47.0000,0.0000,0.0000,0.0000,15968.0000,2324.0000,-1757.0000,-2227.0000,0.2323,1.3584
27826643,101281.421875,20.700001,3.628890,1.4600,-4.3100,11.0500,-238.8125,102.6250,-85.0625,0.0000,0.0000,0.0000,16064.0000,1564.0000,-1220.0000,-2543.0000,0.2885,1.7950
27856767,101289.257812,20.700001,2.976207,1.9000,-3.5700,10.9500,-247.0625,58.1250,-119.0625,0.0000,0.0000,0.0000,16074.0000,626.0000,-723.0000,-3022.0000,0.2233,0.2775
27894695,101282.500000,20.709999,3.538915,0.5100,-0.6800,16.7300,-248.6875,64.8125,-155.0000,0.0000,0.0000,0.0000,15921.0000,-612.0000,-88.0000,-3818.0000,0.2469,0.5495
27925076,101273.593750,20.700001,4.280598,1.2700,1.2500,16.5400,-198.8125,-20.0000,-142.9375,0.0000,0.0000,0.0000,15707.0000,-1477.0000,147.0000,-4420.0000,0.3032,1.2288
27955141,101281.421875,20.700001,3.628890,0.3600,-0.2100,14.8100,-122.8125,-56.0000,-124.1250,0.0000,0.0000,0.0000,15488.0000,-2135.0000,68.0000,-4899.0000,0.3269,1.2147
27996078,101288.179688,20.700001,3.066177,0.4300,1.5800,14.6000,-54.3125,-79.7500,-115.0000,0.0000,0.0000,0.0000,15222.0000,-2643.0000,-255.0000,-5448.0000,0.2853,0.2266
28053957,101281.421875,20.700001,3.628890,0.4900,3.1600,12.4300,84.7500,-105.7500,-51.5000,0.0000,0.0000,0.0000,15019.0000,-2745.0000,-1023.0000,-5867.0000,0.2853,0.1586
28085327,101288.179688,20.700001,3.066177,0.8400,2.8200,6.8000,202.9375,-95.5000,-8.8750,0.0000,0.0000,0.0000,15073.0000,-2014.0000,-1890.0000,-5796.0000,0.2201,-0.8665
28117177,101285.343750,20.700001,3.302035,0.8400,3.2600,6.5600,337.6250,-18.0000,20.2500,0.0000,0.0000,0.0000,15183.0000,-899.0000,-2472.0000,-5566.0000,0.1785,-1.2303
28147300,101288.179688,20.700001,3.066177,0.5900,4.9800,6.6400,371.9375,32.1875,46.0625,0.0000,0.0000,0.0000,15264.0000,513.0000,-2909.0000,-5168.0000,0.1223,-1.7053
28177401,101281.421875,20.700001,3.628890,0.9700,2.8600,6.1100,367.7500,87.6875,73.5625,0.0000,0.0000,0.0000,15281.0000,1985.0000,-3127.0000,-4605.0000,0.1223,-1.1937
28211004,101282.500000,20.709999,3.538915,1.0500,1.7100,7.6500,330.9375,144.1250,53.1250,0.0000,0.0000,0.0000,15215.0000,3399.0000,-3059.0000,-4004.0000,0.1785,0.0085
28245276,101280.351562,20.700001,3.717849,-0.3200,2.4800,10.0400,217.1875,164.6250,43.0625,0.0000,0.0000,0.0000,15093.0000,4773.0000,-2596.0000,-3334.0000,0.1964,0.2743
28276097,101277.507812,20.700001,3.954739,0.6800,1.8600,9.1100,105.7500,68.1875,21.5625,0.0000,0.0000,0.0000,15042.0000,5216.0000,-2369.0000,-3057.0000,0.1638,-0.2967
28315880,101281.421875,20.700001,3.628890,0.7200,1.1000,6.7700,-80.9375,31.2500,-0.8750,0.0000,0.0000,0.0000,15169.0000,4977.0000,-2116.0000,-3012.0000,0.1638,-0.2077
28346308,101281.421875,20.700001,3.628890,0.7700,1.3200,8.5200,-160.0625,38.6250,-32.8750,0.0000,0.0000,0.0000,15350.0000,4394.0000,-1863.0000,-3167.0000,0.2201,0.6987
28376420,101281.421875,20.700001,3.628890,1.1300,-0.3100,10.7400,-246.2500,35.6250,-48.8125,0.0000,0.0000,0.0000,15563.0000,3556.0000,-1463.0000,-3385.0000,0.2201,0.4891
28408329,101287.101562,20.690001,3.155640,1.6200,-1.2700,11.2900,-290.2500,9.7500,-70.5625,0.0000,0.0000,0.0000,15722.0000,2498.0000,-1102.0000,-3715.0000,0.2291,0.4765
28438447,101279.273438,20.690001,3.807826,1.2800,-0.5200,12.6300,-312.8750,-5.3750,-96.2500,0.0000,0.0000,0.0000,15784.0000,1282.0000,-750.0000,-4135.0000,0.2796,1.0923
28468553,101288.179688,20.700001,3.066177,1.8900,0.2100,13.1600,-267.3750,-23.5625,-113.5000,0.0000,0.0000,0.0000,15712.0000,130.0000,-485.0000,-4618.0000,0.2796,0.7646
28504157,101285.343750,20.700001,3.302035,1.4900,0.3100,14.3700,-228.9375,-38.0625,-120.8125,0.0000,0.0000,0.0000,15543.0000,-842.0000,-334.0000,-5103.0000,0.2470,0.0449
28536571,101285.343750,20.700001,3.302035,1.3000,5.5800,14.0200,-203.6875,-64.4375,-120.6875,0.0000,0.0000,0.0000,15217.0000,-2015.0000,-323.0000,-5719.0000,0.2233,-0.3239
28567010,101276.429688,20.700001,4.044718,2.0500,2.9800,11.1600,-113.4375,-88.6875,-52.3125,0.0000,0.0000,0.0000,15035.0000,-2566.0000,-529.0000,-5960.0000,0.2559,0.2636
28598956,101276.429688,20.700001,4.044718,1.2100,1.0400,10.8900,38.3750,-66.7500,-29.1250,0.0000,0.0000,0.0000,14977.0000,-2645.0000,-850.0000,-6034.0000,0.2649,0.3195
28629009,101281.421875,20.700001,3.628890,1.6500,3.3500,10.7500,88.0000,-55.6875,-10.6875,0.0000,0.0000,0.0000,14982.0000,-2445.0000,-1202.0000,-6046.0000,0.2649,0.2236
28659138,101281.421875,20.700001,3.628890,0.9300,3.7900,9.3900,185.1875,-44.2500,29.3750,0.0000,0.0000,0.0000,15071.0000,-1971.0000,-1592.0000,-5906.0000,0.2649,0.1565
28697191,101288.179688,20.700001,3.066177,1.0900,2.8100,6.2300,351.6875,7.5625,63.8125,0.0000,0.0000,0.0000,15291.0000,-399.0000,-2273.0000,-5414.0000,0.2087,-0.7345
28727551,101282.500000,20.709999,3.538915,1.0200,-0.2000,7.1800,385.4375,70.5000,84.6250,0.0000,0.0000,0.0000,15386.0000,1180.0000,-2609.0000,-4849.0000,0.2470,0.0608
28757686,101289.257812,20.700001,2.976207,1.6500,-2.1200,5.9300,257.3750,65.1875,57.8125,0.0000,0.0000,0.0000,15382.0000,2383.0000,-2705.0000,-4339.0000,0.1638,-1.2049
28787758,101280.351562,20.700001,3.717849,1.7300,-2.3000,6.1000,130.3750,59.3125,19.7500,0.0000,0.0000,0.0000,15335.0000,3110.0000,-2684.0000,-4051.0000,0.2290,0.1341
28819684,101279.273438,20.690001,3.807826,0.9100,-0.6900,4.4000,-3.2500,23.0625,-14.6875,0.0000,0.0000,0.0000,15325.0000,3302.0000,-2565.0000,-4011.0000,0.2796,0.8525
28849783,101289.257812,20.700001,2.976207,1.2400,-1.9700,4.2700,-83.9375,19.9375,-26.3750,0.0000,0.0000,0.0000,15358.0000,3098.0000,-2429.0000,-4130.0000,0.2470,0.1080
28879829,101281.421875,20.700001,3.628890,0.3900,-3.0100,7.4300,-124.0000,54.5625,-50.8125,0.0000,0.0000,0.0000,15426.0000,2726.0000,-2096.0000,-4318.0000,0.2054,-0.5481
28915556,101284.257812,20.700001,3.392516,-0.5800,-0.7600,7.1400,-138.8750,28.5625,-77.8750,0.0000,0.0000,0.0000,15450.0000,2282.0000,-1743.0000,-4637.0000,0.1402,-1.3620
28947837,101288.179688,20.700001,3.066177,-0.4800,-0.6100,5.5900,-131.9375,28.3750,-74.7500,0.0000,0.0000,0.0000,15428.0000,1671.0000,-1328.0000,-5084.0000,0.0839,-1.7975
28978173,101280.351562,20.700001,3.717849,-1.3100,-1.1600,9.0800,-111.6875,87.9375,-79.8750,0.0000,0.0000,0.0000,15391.0000,1354.0000,-862.0000,-5383.0000,0.0928,-1.1248
29019000,101287.101562,20.690001,3.155640,-3.3300,0.6900,9.9400,-84.1250,73.1875,-96.6875,0.0000,0.0000,0.0000,15270.0000,1064.0000,-209.0000,-5840.0000,0.1018,-0.6532
29158668,101282.500000,20.709999,3.538915,-5.4500,0.2800,14.8300,-105.3125,119.0000,-59.8750,0.0000,0.0000,0.0000,14624.0000,711.0000,2104.0000,-7045.0000,0.1018,-0.4572
29298672,101282.500000,20.709999,3.538915,-7.7600,1.6300,15.8400,-68.1875,14.0625,37.3750,0.0000,0.0000,0.0000,14453.0000,-731.0000,3804.0000,-6674.0000,0.1580,0.5240
30050087,101281.421875,20.700001,3.628890,2.2300,-2.0100,13.3300,-12.0000,-3.6875,16.9375,0.0000,0.0000,0.0000,15137.0000,-1744.0000,4425.0000,-4084.0000,0.1491,0.2334
30150416,101281.031250,20.680000,3.661424,-0.5600,-1.1500,10.2100,-41.3750,-18.2500,49.0625,0.0000,0.0000,0.0000,16210.0000,677.0000,333.0000,2327.0000,0.1345,-0.0562
30181765,101292.781250,20.680000,2.682919,-0.1100,0.2200,8.5000,-18.5000,-21.8750,44.3750,0.0000,0.0000,0.0000,16178.0000,565.0000,185.0000,2518.0000,0.1052,-0.4793
30213449,101286.710938,20.680000,3.188172,-0.2000,0.2000,9.4300,-10.6250,-32.8750,28.7500,0.0000,0.0000,0.0000,16159.0000,519.0000,59.0000,2654.0000,0.0611,-0.9966
30243345,101285.640625,20.670000,3.277636,0.1800,1.5100,8.7800,-61.1250,-17.0625,2.9375,0.0000,0.0000,0.0000,16153.0000,432.0000,-87.0000,2706.0000,0.0496,-0.8699
30273228,101296.703125,20.680000,2.356093,-0.6600,2.3200,12.4000,-77.8750,-1.5625,11.3125,0.0000,0.0000,0.0000,16156.0000,48.0000,-155.0000,2720.0000,-0.0214,-1.6741
30304930,101290.632812,20.680000,2.861839,0.8100,1.6700,9.6400,0.3750,-2.0625,23.9375,0.0000,0.0000,0.0000,16141.0000,-11.0000,-169.0000,2804.0000,-0.1070,-2.4559
30334815,101290.632812,20.680000,2.861839,0.1900,0.8700,8.4700,3.0000,-5.6875,29.6250,0.0000,0.0000,0.0000,16121.0000,-2.0000,-187.0000,2918.0000,-0.1364,-2.1598
30364704,101290.632812,20.680000,2.861839,1.7000,0.4100,8.6500,-1.8750,-1.9375,34.1875,0.0000,0.0000,0.0000,16096.0000,-37.0000,-203.0000,3052.0000,-0.2041,-2.5275
30400603,101284.953125,20.680000,3.334568,0.5200,-0.9600,9.7000,1.5000,0.5625,16.7500,0.0000,0.0000,0.0000,16078.0000,-45.0000,-210.0000,3145.0000,-0.2245,-2.0758
30432463,101285.640625,20.670000,3.277636,0.6600,0.2500,9.9100,-2.3750,-0.7500,1.4375,0.0000,0.0000,0.0000,16073.0000,-53.0000,-217.0000,3170.0000,-0.2596,-1.9799
30462900,101286.710938,20.680000,3.188172,-1.0000,-0.6900,9.5100,-0.4375,-0.3125,7.2500,0.0000,0.0000,0.0000,16068.0000,-54.0000,-218.0000,3192.0000,-0.3070,-2.0958
30502515,101292.781250,20.680000,2.682919,-1.0700,-0.0400,9.4900,-0.6250,-0.0625,2.1250,0.0000,0.0000,0.0000,16065.0000,-53.0000,-220.0000,3208.0000,-0.3070,-1.4671
30532969,101290.632812,20.680000,2.861839,-1.1100,0.5300,9.5800,-0.3125,-0.0625,-10.5625,0.0000,0.0000,0.0000,16071.0000,-53.0000,-220.0000,3177.0000,-0.3396,-1.5165
30563201,101288.476562,20.670000,3.041270,-0.2500,0.6300,9.5800,-0.1875,-0.3125,-8.6250,0.0000,0.0000,0.0000,16080.0000,-52.0000,-220.0000,3135.0000,-0.3632,-1.4161
30594892,101274.968750,20.680000,4.166215,0.2500,0.1800,9.6100,0.0000,0.1875,-1.3750,0.0000,0.0000,0.0000,16083.0000,-52.0000,-220.0000,3117.0000,-0.1822,1.7239
30624799,101292.390625,20.670000,2.715450,0.2600,0.2000,9.5800,0.1250,0.0625,-0.0625,0.0000,0.0000,0.0000,16083.0000,-52.0000,-220.0000,3117.0000,-0.1969,0.9872
30654660,101286.710938,20.680000,3.188172,0.2400,0.2000,9.5700,-0.1250,-0.0625,0.0000,0.0000,0.0000,0.0000,16083.0000,-52.0000,-220.0000,3117.0000,-0.1642,1.1805
30686348,101277.812500,20.670000,3.929321,0.2600,0.2100,9.5600,0.1250,0.0000,0.0000,0.0000,0.0000,0.0000,16083.0000,-44.0000,-218.0000,3116.0000,-0.0575,2.4276
30716222,101290.632812,20.680000,2.861839,0.2500,0.2000,9.5800,-0.0625,0.1250,0.0000,0.0000,0.0000,0.0000,16083.0000,-36.0000,-217.0000,3116.0000,-0.1048,0.9902
30746106,101280.648438,20.670000,3.693449,0.2400,0.2000,9.5700,0.0000,0.1875,0.0000,0.0000,0.0000,0.0000,16083.0000,-29.0000,-216.0000,3116.0000,-0.0632,1.3169
30776000,101294.546875,20.680000,2.535516,0.2500,0.2100,9.5800,0.0625,0.1250,-0.0625,0.0000,0.0000,0.0000,16083.0000,-22.0000,-215.0000,3116.0000,-0.1284,-0.0572
30808974,101280.648438,20.670000,3.693449,0.2300,0.2100,9.5800,-0.1250,0.1250,0.0000,0.0000,0.0000,0.0000,16084.0000,-15.0000,-214.0000,3116.0000,-0.0274,1.4758
30843300,101288.476562,20.670000,3.041270,0.2200,0.2100,9.5800,0.0000,-0.0625,0.0000,0.0000,0.0000,0.0000,16084.0000,-6.0000,-212.0000,3116.0000,-0.0094,1.3022
30874119,101283.476562,20.660000,3.457582,0.2500,0.2100,9.5800,0.0000,-0.1250,-0.1250,0.0000,0.0000,0.0000,16084.0000,0.0000,-211.0000,3116.0000,0.0322,1.5360
30913700,101290.632812,20.680000,2.861839,0.2400,0.2100,9.5700,0.0000,0.0625,0.0000,0.0000,0.0000,0.0000,16084.0000,7.0000,-210.0000,3116.0000,-0.0982,-0.8814
30944309,101288.476562,20.670000,3.041270,0.2300,0.2100,9.5800,0.0000,-0.1875,-0.0625,0.0000,0.0000,0.0000,16084.0000,12.0000,-209.0000,3116.0000,-0.0657,-0.1282
30974453,101290.632812,20.680000,2.861839,0.2500,0.2000,9.5800,0.0625,-0.0625,0.0625,0.0000,0.0000,0.0000,16084.0000,17.0000,-208.0000,3116.0000,-0.0983,-0.5793
31006168,101281.718750,20.670000,3.603982,0.2500,0.2000,9.5600,0.0625,-0.1875,0.0625,0.0000,0.0000,0.0000,16084.0000,21.0000,-207.0000,3116.0000,-0.1308,-0.8935
31036079,101288.476562,20.670000,3.041270,0.2200,0.2100,9.5700,0.0625,0.0000,0.0000,0.0000,0.0000,0.0000,16084.0000,26.0000,-206.0000,3116.0000,-0.1129,-0.3563
31065961,101290.632812,20.680000,2.861839,0.2300,0.2200,9.5800,-0.1250,-0.0625,0.0000,0.0000,0.0000,0.0000,16084.0000,30.0000,-205.0000,3116.0000,-0.1960,-1.4968
31097653,101288.476562,20.670000,3.041270,0.2500,0.2000,9.5600,-0.1250,0.0625,-0.0625,0.0000,0.0000,0.0000,16084.0000,34.0000,-205.0000,3115.0000,-0.1455,-0.2891
31127543,101290.632812,20.680000,2.861839,0.2400,0.2000,9.5600,0.1250,0.0625,-0.0625,0.0000,0.0000,0.0000,16084.0000,38.0000,-204.0000,3115.0000,-0.2286,-1.4498
31157447,101298.460938,20.680000,2.209711,0.2400,0.2100,9.5600,0.0000,-0.0625,0.0000,0.0000,0.0000,0.0000,16084.0000,42.0000,-203.0000,3115.0000,-0.3118,-2.2622
31191353,101286.710938,20.680000,3.188172,0.2400,0.2200,9.5700,-0.0625,0.0625,0.0625,0.0000,0.0000,0.0000,16084.0000,46.0000,-203.0000,3115.0000,-0.3387,-1.9877
31224531,101284.562500,20.670000,3.367100,0.2300,0.2000,9.5800,-0.1250,0.1875,-0.0625,0.0000,0.0000,0.0000,16084.0000,50.0000,-202.0000,3115.0000,-0.2882,-0.6335
31255165,101290.632812,20.680000,2.861839,0.2500,0.2000,9.5600,0.0000,0.0625,-0.1875,0.0000,0.0000,0.0000,16084.0000,53.0000,-201.0000,3115.0000,-0.3061,-0.7126
31294882,101284.562500,20.670000,3.367100,0.2400,0.2000,9.5900,0.0000,0.0000,0.0000,0.0000,0.0000,0.0000,16084.0000,58.0000,-200.0000,3115.0000,-0.2556,0.2591
31325518,101289.546875,20.670000,2.952316,0.2300,0.2000,9.5700,-0.1250,0.0625,0.0625,0.0000,0.0000,0.0000,16084.0000,61.0000,-200.0000,3115.0000,-0.3208,-0.7961
31365686,101294.546875,20.680000,2.535516,0.2300,0.2000,9.5800,0.0625,-0.1875,0.0000,0.0000,0.0000,0.0000,16084.0000,64.0000,-199.0000,3115.0000,-0.3714,-1.3159
31415566,101282.796875,20.680000,3.514515,0.2400,0.2000,9.5400,0.0000,0.1250,0.0000,0.0000,0.0000,0.0000,16084.0000,68.0000,-199.0000,3115.0000,-0.3061,0.0579
31447772,101288.476562,20.670000,3.041270,0.2600,0.2100,9.5700,0.0000,-0.0625,0.0000,0.0000,0.0000,0.0000,16084.0000,71.0000,-198.0000,3115.0000,-0.3061,0.0405
31477596,101282.796875,20.680000,3.514515,0.2400,0.2100,9.5800,0.0000,-0.1250,0.0000,0.0000,0.0000,0.0000,16084.0000,73.0000,-198.0000,3115.0000,-0.2408,1.0074
31507532,101294.546875,20.680000,2.535516,0.4600,-0.1000,9.5700,0.0625,-0.0625,-0.6875,0.0000,0.0000,0.0000,16084.0000,75.0000,-198.0000,3114.0000,-0.2082,1.1939
